Folder: Piep-DMA/Frquency Sweep TEST/Single

File: ExpDat_2 - Varrimento frequencia_T1_PVC_TD.txt
#EXPORTTYPE:  	DATA ALL
#FILE:        	2 - Varrimento frequencia_T1_TD.ngb-dm2
#FORMAT:      	NETZSCH5
#FTYPE:       	ANSI
#IDENTITY:    	1
#DECIMAL:     	POINT
#SEPARATOR:   	TAB
#MTYPE:       	DMA
#INSTRUMENT:  	NETZSCH DMA 242
#PROJECT:     	TMG
#DATE/TIME:   	12/3/2024 1:32:29 PM (UTC+0)
#LABORATORY:  	Piep
#OPERATOR:    	AV SR
#REMARK:
#SAMPLEHOLDER:	Tension
#SAMPLE:      	PVC_TD
#SAMPLEDIM/MM:	5.000x1.000x5.850
#MATERIAL:    	PVC
#CORR. CODE:  	0
#RANGE:       	25.0°C/00:50/25.0°C
#SEGMENT:     	S1/1
#SEG. 1:      	25.0°C/00:50/25.0°C

##Temp./°C	Time/min	E'(1.000 Hz)/MPa	tan d(1.000 Hz)	Visc.Dyn.(1.000 Hz)/MPa*s	eta"(1.000 Hz)/MPa*s	eta'(1.000 Hz)/MPa*s	c'(1.000 Hz)/(N/µm)	c"(1.000 Hz)/(N/µm)	Smpl.Ampl.(1.000 Hz)/µm	As'(1.000 Hz)/µm	As"(1.000 Hz)/µm	F Sample(1.000 Hz)/N	Fs'(1.000 Hz)/N	Fs"(1.000 Hz)/N	F dyn.(1.000 Hz)/N	Ampl.(1.000 Hz)/µm	A'(1.000 Hz)/µm	A"(1.000 Hz)/µm	F stat.(1.000 Hz)/N	F stat. s(1.000 Hz)/N	Offset(1.000 Hz)/µm	E"(1.000 Hz)/MPa	|E|(1.000 Hz)/MPa	D'(1.000 Hz)/(1/MPa)	D"(1.000 Hz)/(1/MPa)
24.82533	 1.51111	6.13235	0.15280	1.01102	0.99942	0.15271	7.174851e-003	1.096296e-003	 99.87749	99.72928	-5.43919	0.72492	0.72151	7.030741e-002	2.23740	100.087	 99.93164	-5.56641	-0.79650	-0.80446	0.51270	0.93700	6.20352	0.15935	2.434809e-002
24.83067	10.10556	6.14837	0.14972	1.01320	1.00203	0.15003	7.193587e-003	1.077054e-003	 99.91587	99.77249	-5.35081	0.72677	0.72349	6.896886e-002	2.24004	100.126	 99.97559	-5.47852	-0.80177	-0.81884	1.09863	0.92056	6.21690	0.15908	2.381794e-002
24.89633	18.76444	6.13849	0.14920	1.01149	1.00042	0.14926	7.182028e-003	1.071538e-003	100.047	99.90435	-5.33589	0.72649	0.72323	6.872884e-002	2.24180	100.256	100.107	-5.46387	-0.80177	-0.82089	1.23047	0.91584	6.20643	0.15936	2.377596e-002
24.96933	27.41444	6.12966	0.14847	1.00993	0.99898	0.14832	7.171699e-003	1.064781e-003	100.016	99.87540	-5.30653	0.72515	0.72193	6.828862e-002	2.24004	100.226	100.078	-5.43457	-0.79826	-0.82738	1.87500	0.91007	6.19685	0.15962	2.369915e-002
25.03100	36.01667	6.12274	0.14766	1.00867	0.99785	0.14734	7.163607e-003	1.057792e-003	100.015	99.87561	-5.27711	0.72424	0.72105	6.784443e-002	2.23916	100.224	100.078	-5.40527	-0.79826	-0.82306	1.59668	0.90410	6.18913	0.15984	2.360233e-002
25.06567	44.55667	6.11552	0.14732	1.00743	0.99668	0.14683	7.155161e-003	1.054066e-003	100.014	99.87585	-5.26241	0.72334	0.72017	6.762233e-002	2.23828	100.223	100.078	-5.39063	-0.79650	-0.82221	1.65527	0.90091	6.18153	0.16005	2.357711e-002

##Temp./°C	Time/min	E'(0.100 Hz)/MPa	tan d(0.100 Hz)	Visc.Dyn.(0.100 Hz)/MPa*s	eta"(0.100 Hz)/MPa*s	eta'(0.100 Hz)/MPa*s	c'(0.100 Hz)/(N/µm)	c"(0.100 Hz)/(N/µm)	Smpl.Ampl.(0.100 Hz)/µm	As'(0.100 Hz)/µm	As"(0.100 Hz)/µm	F Sample(0.100 Hz)/N	Fs'(0.100 Hz)/N	Fs"(0.100 Hz)/N	F dyn.(0.100 Hz)/N	Ampl.(0.100 Hz)/µm	A'(0.100 Hz)/µm	A"(0.100 Hz)/µm	F stat.(0.100 Hz)/N	F stat. s(0.100 Hz)/N	Offset(0.100 Hz)/µm	E"(0.100 Hz)/MPa	|E|(0.100 Hz)/MPa	D'(0.100 Hz)/(1/MPa)	D"(0.100 Hz)/(1/MPa)
24.80967	 7.85222	5.15246	0.12354	8.46105	8.39721	1.03737	6.028383e-003	7.447327e-004	101.067	100.984	-4.09348	0.61390	0.61182	5.052925e-002	2.14334	101.245	101.162	-4.10156	-0.69100	-0.68713	-0.24902	0.63652	5.19163	0.19116	2.361602e-002
24.87967	16.49556	5.16006	0.12138	8.47130	8.40959	1.02072	6.037267e-003	7.327803e-004	 99.95265	 99.87294	-3.99100	0.60787	0.60588	4.909017e-002	2.12048	100.129	100.049	-3.99902	-0.65408	-0.69276	 2.49023	0.62631	5.19793	0.19098	2.318075e-002
24.94967	25.14333	5.15739	0.12031	8.46584	8.40523	1.01121	6.034142e-003	7.259512e-004	100.01	 99.93151	-3.96156	0.60783	0.60588	4.864081e-002	2.12136	100.186	100.107	-3.96973	-0.67342	-0.71278	 2.53418	0.62047	5.19458	0.19113	2.299436e-002
25.00633	33.75667	5.15538	0.11986	8.46211	8.40197	1.00709	6.031798e-003	7.229937e-004	 99.98027	 99.90234	-3.94686	0.60738	0.60544	4.842209e-002	2.12048	100.156	100.078	-3.95508	-0.67166	-0.71512	 2.79785	0.61794	5.19229	0.19122	2.292089e-002
25.05733	42.33889	5.15050	0.11887	8.45310	8.39400	0.99779	6.026080e-003	7.163133e-004	100.009	 99.93175	-3.91743	0.60690	0.60500	4.797572e-002	2.12048	100.184	100.107	-3.92578	-0.67166	-0.71466	 2.76855	0.61223	5.18676	0.19145	2.275755e-002

##Temp./°C	Time/min	E'(0.167 Hz)/MPa	tan d(0.167 Hz)	Visc.Dyn.(0.167 Hz)/MPa*s	eta"(0.167 Hz)/MPa*s	eta'(0.167 Hz)/MPa*s	c'(0.167 Hz)/(N/µm)	c"(0.167 Hz)/(N/µm)	Smpl.Ampl.(0.167 Hz)/µm	As'(0.167 Hz)/µm	As"(0.167 Hz)/µm	F Sample(0.167 Hz)/N	Fs'(0.167 Hz)/N	Fs"(0.167 Hz)/N	F dyn.(0.167 Hz)/N	Ampl.(0.167 Hz)/µm	A'(0.167 Hz)/µm	A"(0.167 Hz)/µm	F stat.(0.167 Hz)/N	F stat. s(0.167 Hz)/N	Offset(0.167 Hz)/µm	E"(0.167 Hz)/MPa	|E|(0.167 Hz)/MPa	D'(0.167 Hz)/(1/MPa)	D"(0.167 Hz)/(1/MPa)
24.79567	 5.85000	5.34222	0.12888	5.25656	5.21345	0.67189	6.250392e-003	8.055278e-004	100.383	100.291	-4.30212	0.63262	0.63032	5.389714e-002	2.15213	100.567	100.474	-4.32129	-0.69803	-0.70213	0.26367	0.68849	5.38640	0.18413	2.373001e-002
24.86467	14.50222	5.34859	0.12691	5.26153	5.21966	0.66243	6.257845e-003	7.941836e-004	 99.94162	 99.85211	-4.22882	0.63044	0.62822	5.283761e-002	2.14334	100.124	100.034	-4.24805	-0.68924	-0.71541	1.68457	0.67879	5.39149	0.18400	2.335167e-002
24.93467	23.14778	5.34874	0.12534	5.26066	5.21982	0.65424	6.258029e-003	7.843658e-004	 99.98357	 99.89596	-4.18466	0.63060	0.62843	5.216728e-002	2.14421	100.166	100.078	-4.20410	-0.69628	-0.73200	2.29980	0.67040	5.39059	0.18407	2.307065e-002
24.99033	31.75667	5.34360	0.12487	5.25530	5.21480	0.65119	6.252017e-003	7.807093e-004	100.012	 99.92538	-4.16993	0.63014	0.62799	5.194218e-002	2.14421	100.195	100.107	-4.18945	-0.69628	-0.73405	2.43164	0.66727	5.38511	0.18427	2.300992e-002
25.04800	40.34000	5.34189	0.12394	5.25302	5.21313	0.64610	6.250016e-003	7.746066e-004	 99.98197	 99.89620	-4.14053	0.62967	0.62756	5.150189e-002	2.14334	100.165	100.078	-4.16016	-0.69452	-0.73183	2.40234	0.66206	5.38276	0.18437	2.284991e-002

##Temp./°C	Time/min	E'(0.200 Hz)/MPa	tan d(0.200 Hz)	Visc.Dyn.(0.200 Hz)/MPa*s	eta"(0.200 Hz)/MPa*s	eta'(0.200 Hz)/MPa*s	c'(0.200 Hz)/(N/µm)	c"(0.200 Hz)/(N/µm)	Smpl.Ampl.(0.200 Hz)/µm	As'(0.200 Hz)/µm	As"(0.200 Hz)/µm	F Sample(0.200 Hz)/N	Fs'(0.200 Hz)/N	Fs"(0.200 Hz)/N	F dyn.(0.200 Hz)/N	Ampl.(0.200 Hz)/µm	A'(0.200 Hz)/µm	A"(0.200 Hz)/µm	F stat.(0.200 Hz)/N	F stat. s(0.200 Hz)/N	Offset(0.200 Hz)/µm	E"(0.200 Hz)/MPa	|E|(0.200 Hz)/MPa	D'(0.200 Hz)/(1/MPa)	D"(0.200 Hz)/(1/MPa)
24.78933	 4.53889	5.41685	0.13155	4.45207	4.41404	0.58067	6.337710e-003	8.337294e-004	100.459	100.361	-4.41972	0.64216	0.63975	5.566329e-002	2.16268	100.645	100.547	-4.43848	-0.70507	-0.71781	0.82031	0.71259	5.46352	0.18147	2.387233e-002
24.85733	13.19111	5.42246	0.12875	4.45508	4.41861	0.56888	6.344274e-003	8.167976e-004	 99.94277	 99.84949	-4.31703	0.63930	0.63700	5.416838e-002	2.15213	100.128	100.034	-4.33594	-0.69803	-0.72875	1.97754	0.69812	5.46721	0.18141	2.335591e-002
24.92367	21.84000	5.41967	0.12771	4.45222	4.41635	0.56401	6.341018e-003	8.098026e-004	100	 99.90806	-4.28758	0.63925	0.63699	5.371820e-002	2.15301	100.185	100.093	-4.30664	-0.70683	-0.74460	2.43164	0.69214	5.46369	0.18155	2.318574e-002
24.98567	30.44778	5.41452	0.12725	4.44773	4.41215	0.56144	6.334992e-003	8.061200e-004	100.029	 99.93747	-4.27285	0.63879	0.63655	5.349310e-002	2.15301	100.214	100.122	-4.29199	-0.70507	-0.74853	2.79785	0.68899	5.45818	0.18175	2.312691e-002
[...]
24.84067	 0.39222	7.03021	0.18630	0.23309	0.22915	4.269078e-002	8.225340e-003	1.532392e-003	101.646	101.375	-7.41643	0.85045	0.84521	9.434295e-002	2.38246	101.882	101.558	-8.12988	-1.07079	-0.82142	-16.05469	1.30974	7.15117	0.13747	2.561121e-002
24.82233	 8.99444	7.04397	0.18368	0.23344	0.22960	4.217237e-002	8.241441e-003	1.513784e-003	 99.93842	 99.67810	-7.20866	0.83742	0.83240	9.148133e-002	2.34378	100.171	 99.85840	-7.91016	-0.89496	-0.82124	 -4.74609	1.29383	7.16181	0.13733	2.522509e-002
24.88900	17.62889	7.01789	0.18245	0.23252	0.22875	4.173404e-002	8.210930e-003	1.498049e-003	100.111	 99.85403	-7.16322	0.83557	0.83063	9.076955e-002	2.34466	100.343	100.034	-7.86621	-0.92309	-0.81001	 -7.28027	1.28038	7.13373	0.13790	2.515976e-002
24.95867	26.30111	7.00787	0.18190	0.23217	0.22842	4.154949e-002	8.199208e-003	1.491425e-003	100.05	 99.79575	-7.13426	0.83380	0.82889	9.034263e-002	2.34202	100.282	 99.97559	-7.83691	-0.91782	-0.81975	 -6.31348	1.27472	7.12286	0.13813	2.512503e-002
25.01733	34.90444	6.99663	0.18127	0.23177	0.22805	4.133983e-002	8.186059e-003	1.483899e-003	100.034	 99.78134	-7.10496	0.83223	0.82736	8.990381e-002	2.34026	100.265	 99.96094	-7.80762	-0.91606	-0.81868	 -6.26953	1.26829	7.11065	0.13838	2.508415e-002
25.06500	43.47778	6.98665	0.18098	0.23143	0.22773	4.121381e-002	8.174385e-003	1.479376e-003	100.048	 99.79620	-7.09015	0.83111	0.82626	8.967845e-002	2.33938	100.279	 99.97559	-7.79297	-0.91606	-0.82118	 -6.10840	1.26442	7.10015	0.13859	2.508175e-002

##Temp./°C	Time/min	E'(10.000 Hz)/MPa	tan d(10.000 Hz)	Visc.Dyn.(10.000 Hz)/MPa*s	eta"(10.000 Hz)/MPa*s	eta'(10.000 Hz)/MPa*s	c'(10.000 Hz)/(N/µm)	c"(10.000 Hz)/(N/µm)	Smpl.Ampl.(10.000 Hz)/µm	As'(10.000 Hz)/µm	As"(10.000 Hz)/µm	F Sample(10.000 Hz)/N	Fs'(10.000 Hz)/N	Fs"(10.000 Hz)/N	F dyn.(10.000 Hz)/N	Ampl.(10.000 Hz)/µm	A'(10.000 Hz)/µm	A"(10.000 Hz)/µm	F stat.(10.000 Hz)/N	F stat. s(10.000 Hz)/N	Offset(10.000 Hz)/µm	E"(10.000 Hz)/MPa	|E|(10.000 Hz)/MPa	D'(10.000 Hz)/(1/MPa)	D"(10.000 Hz)/(1/MPa)
24.84633	 0.14556	7.57535	0.20515	0.12603	0.12346	2.532765e-002	8.863164e-003	1.818280e-003	 93.87749	93.52685	-8.10629	0.84938	0.84368	9.821057e-002	2.23740	 94.10830	93.63281	 -9.44824	-0.82815	-0.75192	 -4.90723	1.55409	7.73312	0.12668	2.598754e-002
24.81867	 8.75111	7.55024	0.20413	0.12559	0.12305	2.511846e-002	8.833786e-003	1.803261e-003	100.067	99.69870	-8.57279	0.90220	0.89618	      0.10405	2.38246	100.315	99.81445	-10.00488	-1.09540	-0.79188	-19.54102	1.54125	7.70595	0.12715	2.595497e-002
24.88800	17.39222	7.52275	0.20279	0.12510	0.12260	2.486251e-002	8.801623e-003	1.784887e-003	100.134	99.77189	-8.51292	0.89928	0.89335	      0.10315	2.38070	100.382	99.88770	 -9.94629	-0.99167	-0.77756	-13.78418	1.52554	7.67588	0.12768	2.589217e-002
24.95567	26.04778	7.51147	0.20241	0.12490	0.12242	2.477814e-002	8.788423e-003	1.778830e-003	100.045	99.68424	-8.48484	0.89706	0.89116	      0.10275	2.37719	100.291	99.79980	 -9.91699	-0.98639	-0.78981	-12.65625	1.52037	7.66379	0.12789	2.588576e-002
25.01500	34.66889	7.49408	0.20224	0.12461	0.12213	2.470086e-002	8.768072e-003	1.773282e-003	100.058	99.69924	-8.46994	0.89508	0.88919	      0.10253	2.37543	100.304	99.81445	 -9.90234	-0.98639	-0.79117	-12.56836	1.51563	7.64581	0.12820	2.592659e-002
25.06333	43.24111	7.48603	0.20165	0.12446	0.12200	2.460231e-002	8.758656e-003	1.766207e-003	100.027	99.66990	-8.44098	0.89373	0.88788	      0.10211	2.37367	100.272	99.78516	 -9.87305	-0.98463	-0.79078	-12.48047	1.50958	7.63672	0.12836	2.588464e-002

File: ExpDat_2 - Varrimento frequencia_T1_TPE_MD.txt
#EXPORTTYPE:  	DATA ALL
#FILE:        	2 - Varrimento frequencia_T1_MD.ngb-dm2
#FORMAT:      	NETZSCH5
#FTYPE:       	ANSI
#IDENTITY:    	T1_MD
#DECIMAL:     	POINT
#SEPARATOR:   	TAB
#MTYPE:       	DMA
#INSTRUMENT:  	NETZSCH DMA 242
#PROJECT:     	TMG
#DATE/TIME:   	11/15/2024 9:44:54 AM (UTC+0)
#LABORATORY:  	Piep
#OPERATOR:    	AV SR
#REMARK:
#SAMPLEHOLDER:	Tension
#SAMPLE:      	TPE_MD
#SAMPLEDIM/MM:	5.000x1.000x6.150
#MATERIAL:    	TPE
#CORR. CODE:  	0
#RANGE:       	20.0°C/00:50/20.0°C
#SEGMENT:     	S1/1
#SEG. 1:      	20.0°C/00:50/20.0°C

##Temp./°C	Time/min	E'(1.000 Hz)/MPa	tan d(1.000 Hz)	Visc.Dyn.(1.000 Hz)/MPa*s	eta"(1.000 Hz)/MPa*s	eta'(1.000 Hz)/MPa*s	c'(1.000 Hz)/(N/µm)	c"(1.000 Hz)/(N/µm)	Smpl.Ampl.(1.000 Hz)/µm	As'(1.000 Hz)/µm	As"(1.000 Hz)/µm	F Sample(1.000 Hz)/N	Fs'(1.000 Hz)/N	Fs"(1.000 Hz)/N	F dyn.(1.000 Hz)/N	Ampl.(1.000 Hz)/µm	A'(1.000 Hz)/µm	A"(1.000 Hz)/µm	F stat.(1.000 Hz)/N	F stat. s(1.000 Hz)/N	Offset(1.000 Hz)/µm	E"(1.000 Hz)/MPa	|E|(1.000 Hz)/MPa	D'(1.000 Hz)/(1/MPa)	D"(1.000 Hz)/(1/MPa)
20.53533	 1.55222	6.82832	0.10299	1.11873	1.11284	0.11461	8.398838e-003	8.650072e-004	99.79385	99.70660	-4.17220	0.84259	0.84103	5.120525e-002	2.35697	100.039	 99.94629	-4.30664	-0.92485	-0.93200	0.45996	0.70326	6.86444	0.14491	1.492465e-002
20.42333	10.05111	6.89605	0.10135	1.12964	1.12388	0.11391	8.482140e-003	8.596990e-004	99.62893	99.54337	-4.12823	0.84940	0.84789	5.056108e-002	2.36136	 99.87616	 99.78516	-4.26270	-0.93364	-0.94397	0.66504	0.69894	6.93138	0.14354	1.454796e-002
20.41000	18.61111	6.90551	0.10089	1.13114	1.12542	0.11354	8.493773e-003	8.569238e-004	99.94967	99.86440	-4.12765	0.85326	0.85176	5.051685e-002	2.37015	100.198	100.107	-4.26270	-0.94419	-0.96294	1.20703	0.69669	6.94056	0.14335	1.446265e-002
20.44400	27.21000	6.92116	0.10081	1.13369	1.12797	0.11371	8.513027e-003	8.581660e-004	99.90530	99.81999	-4.12770	0.85481	0.85331	5.052288e-002	2.37103	100.154	100.063	-4.26270	-0.94068	-0.96193	1.36816	0.69770	6.95624	0.14303	1.441841e-002
20.49800	35.86000	6.92983	0.10070	1.13510	1.12939	0.11373	8.523690e-003	8.583128e-004	99.93415	99.84888	-4.12764	0.85612	0.85462	5.051886e-002	2.37279	100.183	100.093	-4.26270	-0.94419	-0.96476	1.32422	0.69782	6.96487	0.14286	1.438513e-002
20.53167	44.49778	6.93157	0.10024	1.13533	1.12967	0.11324	8.525828e-003	8.546264e-004	99.96266	99.87801	-4.11287	0.85654	0.85506	5.029275e-002	2.37367	100.212	100.122	-4.24805	-0.94419	-0.96362	1.25098	0.69482	6.96630	0.14283	1.431747e-002

##Temp./°C	Time/min	E'(0.100 Hz)/MPa	tan d(0.100 Hz)	Visc.Dyn.(0.100 Hz)/MPa*s	eta"(0.100 Hz)/MPa*s	eta'(0.100 Hz)/MPa*s	c'(0.100 Hz)/(N/µm)	c"(0.100 Hz)/(N/µm)	Smpl.Ampl.(0.100 Hz)/µm	As'(0.100 Hz)/µm	As"(0.100 Hz)/µm	F Sample(0.100 Hz)/N	Fs'(0.100 Hz)/N	Fs"(0.100 Hz)/N	F dyn.(0.100 Hz)/N	Ampl.(0.100 Hz)/µm	A'(0.100 Hz)/µm	A"(0.100 Hz)/µm	F stat.(0.100 Hz)/N	F stat. s(0.100 Hz)/N	Offset(0.100 Hz)/µm	E"(0.100 Hz)/MPa	|E|(0.100 Hz)/MPa	D'(0.100 Hz)/(1/MPa)	D"(0.100 Hz)/(1/MPa)
20.43633	 7.83111	6.12406	9.359253e-002	10.02429	 9.98067	0.93412	7.532599e-003	7.049950e-004	100.858	100.793	-3.63581	0.76304	0.76179	4.367120e-002	2.29103	101.081	101.016	-3.64746	-0.85276	-0.84694	-0.37500	0.57317	6.15083	0.16187	1.515004e-002
20.41000	16.40111	6.15284	9.135223e-002	10.06933	10.02758	0.91604	7.567998e-003	6.913536e-004	 99.81663	 99.75407	-3.53333	0.75856	0.75738	4.222508e-002	2.27081	100.038	 99.97559	-3.54492	-0.82111	-0.83486	 0.88477	0.56208	6.17846	0.16118	1.472428e-002
20.43100	24.98556	6.16253	9.115667e-002	10.08500	10.04336	0.91552	7.579911e-003	6.909594e-004	 99.91849	 99.85600	-3.53326	0.76051	0.75934	4.221461e-002	2.27433	100.141	100.078	-3.54492	-0.84221	-0.86619	 1.54395	0.56176	6.18808	0.16093	1.467019e-002
20.48733	33.61778	6.17415	9.103662e-002	10.10390	10.06229	0.91604	7.594200e-003	6.913503e-004	 99.93265	 99.87017	-3.53324	0.76205	0.76088	4.221311e-002	2.27608	100.156	100.093	-3.54492	-0.84221	-0.86779	 1.64648	0.56207	6.19968	0.16063	1.462362e-002
20.52267	42.24111	6.18131	9.097228e-002	10.11557	10.07397	0.91645	7.603012e-003	6.916633e-004	 99.93238	 99.86990	-3.53324	0.76292	0.76176	4.221311e-002	2.27696	100.156	100.093	-3.54492	-0.84397	-0.87774	 2.17383	0.56233	6.20684	0.16045	1.459651e-002

##Temp./°C	Time/min	E'(0.167 Hz)/MPa	tan d(0.167 Hz)	Visc.Dyn.(0.167 Hz)/MPa*s	eta"(0.167 Hz)/MPa*s	eta'(0.167 Hz)/MPa*s	c'(0.167 Hz)/(N/µm)	c"(0.167 Hz)/(N/µm)	Smpl.Ampl.(0.167 Hz)/µm	As'(0.167 Hz)/µm	As"(0.167 Hz)/µm	F Sample(0.167 Hz)/N	Fs'(0.167 Hz)/N	Fs"(0.167 Hz)/N	F dyn.(0.167 Hz)/N	Ampl.(0.167 Hz)/µm	A'(0.167 Hz)/µm	A"(0.167 Hz)/µm	F stat.(0.167 Hz)/N	F stat. s(0.167 Hz)/N	Offset(0.167 Hz)/µm	E"(0.167 Hz)/MPa	|E|(0.167 Hz)/MPa	D'(0.167 Hz)/(1/MPa)	D"(0.167 Hz)/(1/MPa)
20.45833	 5.82333	6.28161	9.263941e-002	6.15645	6.13020	0.56790	7.726386e-003	7.157679e-004	100.239	100.173	-3.62372	0.77780	0.77657	4.370268e-002	2.29718	100.467	100.4	-3.64746	-0.85628	-0.85387	-0.15527	0.58193	6.30851	0.15784	1.462222e-002
20.41133	14.40333	6.31341	9.282856e-002	6.18772	6.16123	0.57194	7.765497e-003	7.208600e-004	 99.79969	 99.73388	-3.62396	0.77833	0.77710	4.375229e-002	2.29103	100.027	 99.96094	-3.64746	-0.85100	-0.85519	 0.26953	0.58606	6.34056	0.15704	1.457777e-002
20.42400	22.98667	6.31935	9.216889e-002	6.19317	6.16703	0.56841	7.772800e-003	7.164103e-004	 99.95956	 99.89438	-3.60913	0.78026	0.77904	4.351230e-002	2.29543	100.188	100.122	-3.63281	-0.86331	-0.88138	 1.16309	0.58245	6.34613	0.15691	1.446233e-002
20.47733	31.62444	6.32945	9.166286e-002	6.20278	6.17688	0.56619	7.785221e-003	7.136156e-004	 99.94404	 99.87939	-3.59442	0.78135	0.78015	4.329216e-002	2.29630	100.173	100.107	-3.61816	-0.86155	-0.88076	 1.23633	0.58018	6.35598	0.15668	1.436130e-002
20.51467	40.24222	6.33407	9.117443e-002	6.20704	6.18140	0.56359	7.790908e-003	7.103316e-004	 99.95794	 99.89382	-3.57969	0.78199	0.78081	4.306871e-002	2.29718	100.187	100.122	-3.60352	-0.86331	-0.88547	 1.42676	0.57751	6.36034	0.15657	1.427561e-002

##Temp./°C	Time/min	E'(0.200 Hz)/MPa	tan d(0.200 Hz)	Visc.Dyn.(0.200 Hz)/MPa*s	eta"(0.200 Hz)/MPa*s	eta'(0.200 Hz)/MPa*s	c'(0.200 Hz)/(N/µm)	c"(0.200 Hz)/(N/µm)	Smpl.Ampl.(0.200 Hz)/µm	As'(0.200 Hz)/µm	As"(0.200 Hz)/µm	F Sample(0.200 Hz)/N	Fs'(0.200 Hz)/N	Fs"(0.200 Hz)/N	F dyn.(0.200 Hz)/N	Ampl.(0.200 Hz)/µm	A'(0.200 Hz)/µm	A"(0.200 Hz)/µm	F stat.(0.200 Hz)/N	F stat. s(0.200 Hz)/N	Offset(0.200 Hz)/µm	E"(0.200 Hz)/MPa	|E|(0.200 Hz)/MPa	D'(0.200 Hz)/(1/MPa)	D"(0.200 Hz)/(1/MPa)
20.47467	 4.50889	6.32684	9.432983e-002	5.17846	5.15557	0.48632	7.782014e-003	7.340760e-004	100.298	100.23	-3.69718	0.78399	0.78271	4.480505e-002	2.30422	100.528	100.459	-3.72070	-0.86155	-0.86551	0.25488	0.59681	6.35493	0.15666	1.477797e-002
20.41167	13.08556	6.37717	9.277512e-002	5.21890	5.19658	0.48211	7.843918e-003	7.277205e-004	 99.72484	 99.65843	-3.63863	0.78559	0.78436	4.398236e-002	2.29718	 99.95480	 99.88770	-3.66211	-0.85628	-0.86752	0.72363	0.59164	6.40456	0.15547	1.442386e-002
20.42033	21.67667	6.37773	9.291650e-002	5.21942	5.19704	0.48289	7.844604e-003	7.288931e-004	 99.98817	 99.92141	-3.65317	0.78775	0.78651	4.417438e-002	2.30334	100.219	100.151	-3.67676	-0.87386	-0.89784	1.54395	0.59260	6.40520	0.15545	1.444420e-002
[...]
20.58933	 0.43222	7.44178	0.12641	0.24449	0.24256	3.066345e-002	9.153387e-003	1.157114e-003	101.078	100.926	-5.53555	0.93257	0.93022	6.611381e-002	2.46070	101.341	101.147	-6.25488	-1.11826	-0.95044	-10.80469	0.94074	7.50100	0.13226	1.671985e-002
20.42867	 8.96778	7.56015	0.12453	0.24833	0.24642	3.068643e-002	9.298987e-003	1.157981e-003	 99.40351	 99.25586	-5.41574	0.93149	0.92925	6.457547e-002	2.43433	 99.66580	 99.47754	-6.12305	-0.99870	-0.95192	 -3.01172	0.94145	7.61854	0.13025	1.622005e-002
20.40867	17.54444	7.56938	0.12436	0.24862	0.24672	3.068334e-002	9.310339e-003	1.157864e-003	 99.92970	 99.78146	-5.44112	0.93755	0.93530	6.487469e-002	2.44840	100.194	100.005	-6.15234	-1.04090	-0.94338	 -6.27832	0.94135	7.62769	0.13010	1.617955e-002
20.43800	26.12889	7.57688	0.12391	0.24886	0.24697	3.060156e-002	9.319565e-003	1.154778e-003	 99.92853	 99.78108	-5.42640	0.93841	0.93618	6.465330e-002	2.44927	100.193	100.005	-6.13770	-1.03386	-0.96570	 -4.38867	0.93884	7.63483	0.12998	1.610628e-002
20.49300	34.75778	7.58438	0.12346	0.24909	0.24721	3.051971e-002	9.328791e-003	1.151690e-003	 99.92735	 99.78070	-5.41169	0.93928	0.93707	6.443191e-002	2.45015	100.192	100.005	-6.12305	-1.03562	-0.97087	 -4.16895	0.93633	7.64196	0.12987	1.603321e-002
20.52667	43.38444	7.58706	0.12334	0.24917	0.24730	3.050126e-002	9.332082e-003	1.150994e-003	 99.98555	 99.83901	-5.41124	0.94014	0.93793	6.441597e-002	2.45191	100.251	100.063	-6.12305	-1.03562	-0.96905	 -4.28613	0.93577	7.64455	0.12983	1.601268e-002

##Temp./°C	Time/min	E'(10.000 Hz)/MPa	tan d(10.000 Hz)	Visc.Dyn.(10.000 Hz)/MPa*s	eta"(10.000 Hz)/MPa*s	eta'(10.000 Hz)/MPa*s	c'(10.000 Hz)/(N/µm)	c"(10.000 Hz)/(N/µm)	Smpl.Ampl.(10.000 Hz)/µm	As'(10.000 Hz)/µm	As"(10.000 Hz)/µm	F Sample(10.000 Hz)/N	Fs'(10.000 Hz)/N	Fs"(10.000 Hz)/N	F dyn.(10.000 Hz)/N	Ampl.(10.000 Hz)/µm	A'(10.000 Hz)/µm	A"(10.000 Hz)/µm	F stat.(10.000 Hz)/N	F stat. s(10.000 Hz)/N	Offset(10.000 Hz)/µm	E"(10.000 Hz)/MPa	|E|(10.000 Hz)/MPa	D'(10.000 Hz)/(1/MPa)	D"(10.000 Hz)/(1/MPa)
20.60400	 0.20111	7.85960	0.14434	0.12942	0.12809	1.848820e-002	9.667313e-003	1.395339e-003	95.78153	95.57061	-6.35282	0.93555	0.93278	7.193872e-002	2.35697	 96.03948	95.72754	-7.73438	-0.95650	-0.89971	 -3.65625	1.13442	7.94105	0.12464	1.798948e-002
20.42900	 8.72778	7.92623	0.14378	0.13051	0.12918	1.857263e-002	9.749267e-003	1.401711e-003	99.64630	99.42724	-6.60362	0.98147	0.97860	7.498774e-002	2.46070	 99.91888	99.59473	-8.04199	-1.14464	-0.93244	-13.66113	1.13960	8.00774	0.12361	1.777189e-002
20.40767	17.30778	7.95266	0.14314	0.13093	0.12961	1.855232e-002	9.781767e-003	1.400178e-003	99.83455	99.61610	-6.60073	0.98651	0.98366	7.491347e-002	2.46862	100.109	99.78516	-8.04199	-1.09013	-0.90911	-11.65430	1.13836	8.03372	0.12322	1.763783e-002
20.43567	25.88778	7.95742	0.14323	0.13101	0.12969	1.857540e-002	9.787632e-003	1.401920e-003	99.95198	99.73293	-6.61368	0.98828	0.98542	7.508532e-002	2.47213	100.227	99.90234	-8.05664	-1.09013	-0.93914	 -9.72070	1.13977	8.03864	0.12314	1.763816e-002
20.49100	34.52111	7.96458	0.14317	0.13113	0.12980	1.858318e-002	9.796435e-003	1.402507e-003	99.95170	99.73265	-6.61367	0.98915	0.98630	7.508532e-002	2.47301	100.227	99.90234	-8.05664	-1.09013	-0.94051	 -9.63281	1.14025	8.04579	0.12303	1.761419e-002
20.52567	43.14778	7.96924	0.14272	0.13119	0.12988	1.853646e-002	9.802165e-003	1.398981e-003	99.96490	99.74687	-6.59874	0.98980	0.98697	7.486208e-002	2.47389	100.24	99.91699	-8.04199	-1.09013	-0.94028	 -9.64746	1.13738	8.05000	0.12298	1.755155e-002