Folder: Piep-DMA/Frquency Sweep TEST/Single (part 2)

File: ExpDat_2 - Varrimento frequencia_T2_PVC_TD.txt
#EXPORTTYPE:  	DATA ALL
#FILE:        	2 - Varrimento frequencia_T2_TD.ngb-dm2
#FORMAT:      	NETZSCH5
#FTYPE:       	ANSI
#IDENTITY:    	2
#DECIMAL:     	POINT
#SEPARATOR:   	TAB
#MTYPE:       	DMA
#INSTRUMENT:  	NETZSCH DMA 242
#PROJECT:     	TMG
#DATE/TIME:   	12/3/2024 3:02:14 PM (UTC+0)
#LABORATORY:  	Piep
#OPERATOR:    	LG
#REMARK:
#SAMPLEHOLDER:	Tension
#SAMPLE:      	PVC_TD
#SAMPLEDIM/MM:	5.000x1.000x6.250
#MATERIAL:    	PVC
#CORR. CODE:  	0
#RANGE:       	25.0°C/00:50/25.0°C
#SEGMENT:     	S1/1
#SEG. 1:      	25.0°C/00:50/25.0°C

##Temp./°C	Time/min	E'(1.000 Hz)/MPa	tan d(1.000 Hz)	Visc.Dyn.(1.000 Hz)/MPa*s	eta"(1.000 Hz)/MPa*s	eta'(1.000 Hz)/MPa*s	c'(1.000 Hz)/(N/µm)	c"(1.000 Hz)/(N/µm)	Smpl.Ampl.(1.000 Hz)/µm	As'(1.000 Hz)/µm	As"(1.000 Hz)/µm	F Sample(1.000 Hz)/N	Fs'(1.000 Hz)/N	Fs"(1.000 Hz)/N	F dyn.(1.000 Hz)/N	Ampl.(1.000 Hz)/µm	A'(1.000 Hz)/µm	A"(1.000 Hz)/µm	F stat.(1.000 Hz)/N	F stat. s(1.000 Hz)/N	Offset(1.000 Hz)/µm	E"(1.000 Hz)/MPa	|E|(1.000 Hz)/MPa	D'(1.000 Hz)/(1/MPa)	D"(1.000 Hz)/(1/MPa)
25.31433	 1.59000	5.82296	0.15100	0.95975	0.94900	0.14329	7.278704e-003	1.099052e-003	 99.84429	99.69683	-5.42442	0.73498	0.73163	7.008930e-002	2.24707	100.056	 99.90234	-5.55176	-0.80705	-0.81633	0.59766	0.87924	5.88897	0.16791	2.535301e-002
25.26800	10.17222	5.82445	0.14851	0.95965	0.94924	0.14097	7.280567e-003	1.081201e-003	 99.95695	99.81364	-5.35065	0.73572	0.73249	6.896288e-002	2.24971	100.169	100.02	-5.47852	-0.81232	-0.82434	0.77344	0.86496	5.88833	0.16799	2.494666e-002
25.26600	18.85222	5.82388	0.14799	0.95948	0.94914	0.14046	7.279845e-003	1.077326e-003	 99.99995	99.85749	-5.33586	0.73591	0.73270	6.873481e-002	2.25059	100.213	100.063	-5.46387	-0.81056	-0.83395	1.50586	0.86186	5.88730	0.16803	2.486590e-002
25.30900	27.52556	5.82153	0.14755	0.95903	0.94876	0.13999	7.276910e-003	1.073693e-003	100.014	99.87218	-5.32113	0.73567	0.73247	6.851072e-002	2.25059	100.226	100.078	-5.44922	-0.81056	-0.83782	1.75488	0.85895	5.88456	0.16812	2.480521e-002
25.36067	36.17667	5.81506	0.14675	0.95786	0.94771	0.13907	7.268823e-003	1.066672e-003	100.012	99.87239	-5.29171	0.73476	0.73160	6.806652e-002	2.24971	100.225	100.078	-5.41992	-0.81056	-0.83555	1.60840	0.85334	5.87734	0.16834	2.470356e-002
25.38533	44.83444	5.81094	0.14638	0.95713	0.94704	0.13863	7.263669e-003	1.063281e-003	 99.99726	99.85792	-5.27703	0.73409	0.73095	6.784642e-002	2.24883	100.209	100.063	-5.40527	-0.80881	-0.83925	1.95996	0.85062	5.87286	0.16848	2.466256e-002

##Temp./°C	Time/min	E'(0.100 Hz)/MPa	tan d(0.100 Hz)	Visc.Dyn.(0.100 Hz)/MPa*s	eta"(0.100 Hz)/MPa*s	eta'(0.100 Hz)/MPa*s	c'(0.100 Hz)/(N/µm)	c"(0.100 Hz)/(N/µm)	Smpl.Ampl.(0.100 Hz)/µm	As'(0.100 Hz)/µm	As"(0.100 Hz)/µm	F Sample(0.100 Hz)/N	Fs'(0.100 Hz)/N	Fs"(0.100 Hz)/N	F dyn.(0.100 Hz)/N	Ampl.(0.100 Hz)/µm	A'(0.100 Hz)/µm	A"(0.100 Hz)/µm	F stat.(0.100 Hz)/N	F stat. s(0.100 Hz)/N	Offset(0.100 Hz)/µm	E"(0.100 Hz)/MPa	|E|(0.100 Hz)/MPa	D'(0.100 Hz)/(1/MPa)	D"(0.100 Hz)/(1/MPa)
25.27267	 7.92778	4.88807	0.12195	8.02533	7.96631	0.97146	6.110087e-003	7.450981e-004	101.049	100.967	-4.07873	0.62199	0.61996	5.030902e-002	2.15125	101.23	101.147	-4.08691	-0.69979	-0.69724	-0.16406	0.59608	4.92428	0.20158	2.458204e-002
25.26767	16.57333	4.89550	0.12082	8.03645	7.97843	0.96393	6.119380e-003	7.393226e-004	 99.93611	 99.85580	-4.00568	0.61599	0.61402	4.931336e-002	2.12839	100.115	100.034	-4.01367	-0.66287	-0.70173	 2.50195	0.59146	4.93110	0.20133	2.432404e-002
25.29233	25.25444	4.89546	0.11974	8.03535	7.97836	0.95530	6.119328e-003	7.327090e-004	 99.97876	 99.89966	-3.97624	0.61617	0.61423	4.886549e-002	2.12927	100.157	100.078	-3.98438	-0.68221	-0.71993	 2.42871	0.58617	4.93043	0.20138	2.411303e-002
25.34867	33.90889	4.89317	0.11924	8.03112	7.97462	0.95093	6.116459e-003	7.293524e-004	 99.99287	 99.91437	-3.96152	0.61594	0.61401	4.864230e-002	2.12927	100.171	100.093	-3.96973	-0.68221	-0.72631	 2.83887	0.58348	4.92783	0.20150	2.402788e-002
25.38400	42.55556	4.89337	0.11873	8.03096	7.97495	0.94687	6.116707e-003	7.262427e-004	 99.99228	 99.91436	-3.94681	0.61592	0.61401	4.842060e-002	2.12927	100.171	100.093	-3.95508	-0.68045	-0.72341	 2.76563	0.58099	4.92774	0.20152	2.392638e-002

##Temp./°C	Time/min	E'(0.167 Hz)/MPa	tan d(0.167 Hz)	Visc.Dyn.(0.167 Hz)/MPa*s	eta"(0.167 Hz)/MPa*s	eta'(0.167 Hz)/MPa*s	c'(0.167 Hz)/(N/µm)	c"(0.167 Hz)/(N/µm)	Smpl.Ampl.(0.167 Hz)/µm	As'(0.167 Hz)/µm	As"(0.167 Hz)/µm	F Sample(0.167 Hz)/N	Fs'(0.167 Hz)/N	Fs"(0.167 Hz)/N	F dyn.(0.167 Hz)/N	Ampl.(0.167 Hz)/µm	A'(0.167 Hz)/µm	A"(0.167 Hz)/µm	F stat.(0.167 Hz)/N	F stat. s(0.167 Hz)/N	Offset(0.167 Hz)/µm	E"(0.167 Hz)/MPa	|E|(0.167 Hz)/MPa	D'(0.167 Hz)/(1/MPa)	D"(0.167 Hz)/(1/MPa)
25.28200	 5.93222	5.06543	0.12773	4.98350	4.94333	0.63142	6.331786e-003	8.087672e-004	100.41	100.318	-4.30206	0.64094	0.63867	5.389384e-002	2.16092	100.596	100.503	-4.32129	-0.70507	-0.71299	0.50977	0.64701	5.10658	0.19425	2.481148e-002
25.27133	14.58000	5.07220	0.12583	4.98898	4.94994	0.62288	6.340249e-003	7.978247e-004	 99.92448	 99.83496	-4.22878	0.63854	0.63635	5.283926e-002	2.15125	100.11	100.02	-4.24805	-0.69628	-0.72467	1.82813	0.63826	5.11220	0.19408	2.442204e-002
25.28400	23.26000	5.06937	0.12530	4.98587	4.94718	0.61988	6.336716e-003	7.939856e-004	 99.98239	 99.89354	-4.21404	0.63851	0.63634	5.261087e-002	2.15213	100.168	100.078	-4.23340	-0.70507	-0.73710	2.06250	0.63519	5.10901	0.19421	2.433485e-002
25.33533	31.91111	5.07232	0.12428	4.98814	4.95006	0.61518	6.340400e-003	7.879658e-004	 99.96643	 99.87881	-4.18462	0.63870	0.63657	5.216893e-002	2.15213	100.152	100.063	-4.20410	-0.70507	-0.74234	2.39941	0.63037	5.11134	0.19415	2.412836e-002
25.37833	40.56000	5.07001	0.12380	4.98557	4.94780	0.61252	6.337514e-003	7.845584e-004	 99.98051	 99.89351	-4.16990	0.63846	0.63635	5.194548e-002	2.15213	100.166	100.078	-4.18945	-0.70507	-0.74416	2.51660	0.62765	5.10871	0.19426	2.404873e-002

##Temp./°C	Time/min	E'(0.200 Hz)/MPa	tan d(0.200 Hz)	Visc.Dyn.(0.200 Hz)/MPa*s	eta"(0.200 Hz)/MPa*s	eta'(0.200 Hz)/MPa*s	c'(0.200 Hz)/(N/µm)	c"(0.200 Hz)/(N/µm)	Smpl.Ampl.(0.200 Hz)/µm	As'(0.200 Hz)/µm	As"(0.200 Hz)/µm	F Sample(0.200 Hz)/N	Fs'(0.200 Hz)/N	Fs"(0.200 Hz)/N	F dyn.(0.200 Hz)/N	Ampl.(0.200 Hz)/µm	A'(0.200 Hz)/µm	A"(0.200 Hz)/µm	F stat.(0.200 Hz)/N	F stat. s(0.200 Hz)/N	Offset(0.200 Hz)/µm	E"(0.200 Hz)/MPa	|E|(0.200 Hz)/MPa	D'(0.200 Hz)/(1/MPa)	D"(0.200 Hz)/(1/MPa)
25.28767	 4.62000	5.13544	0.12991	4.21989	4.18473	0.54363	6.419295e-003	8.339126e-004	100.485	100.388	-4.40494	0.65046	0.64809	5.543820e-002	2.17147	100.673	100.576	-4.42383	-0.71562	-0.73036	0.94922	0.66713	5.17859	0.19149	2.487642e-002
25.27267	13.26222	5.14333	0.12760	4.22514	4.19116	0.53478	6.429165e-003	8.203491e-004	 99.95476	 99.86150	-4.31698	0.64784	0.64557	5.416673e-002	2.16092	100.143	100.049	-4.33594	-0.70683	-0.73818	2.01855	0.65628	5.18503	0.19131	2.441101e-002
25.27533	21.95111	5.14553	0.12703	4.22665	4.19296	0.53262	6.431914e-003	8.170264e-004	 99.98325	 99.89065	-4.30224	0.64825	0.64600	5.394164e-002	2.16180	100.171	100.078	-4.32129	-0.71562	-0.75311	2.41406	0.65362	5.18688	0.19126	2.429483e-002
25.32667	30.60222	5.14091	0.12607	4.22235	4.18919	0.52815	6.426134e-003	8.101714e-004	100.011	 99.92006	-4.27281	0.64777	0.64556	5.349475e-002	2.16180	100.199	100.107	-4.29199	-0.71562	-0.75857	2.76563	0.64814	5.18160	0.19147	2.414007e-002
[...]
25.32133	 0.41444	6.67216	0.18428	0.22114	0.21748	4.007637e-002	8.340194e-003	1.536909e-003	101.67	101.4	-7.40142	0.86222	0.85707	9.411363e-002	2.39477	101.911	101.587	-8.11523	-1.08485	-0.83362	-16.17480	1.22953	6.78450	0.14495	2.671179e-002
25.27000	 9.05111	6.67683	0.18178	0.22120	0.21763	3.956047e-002	8.346038e-003	1.517125e-003	 99.97777	 99.71864	-7.19354	0.84809	0.84317	9.124803e-002	2.35521	100.214	 99.90234	-7.89551	-0.90551	-0.83038	 -4.83691	1.21370	6.78625	0.14498	2.635434e-002
25.26533	17.73889	6.66356	0.18142	0.22074	0.21720	3.940395e-002	8.329453e-003	1.511122e-003	100.05	 99.79209	-7.17829	0.84696	0.84206	9.100681e-002	2.35521	100.286	 99.97559	-7.88086	-0.93364	-0.82461	 -7.01953	1.20890	6.77233	0.14529	2.635803e-002
25.29933	26.39222	6.65580	0.18078	0.22046	0.21695	3.922011e-002	8.319752e-003	1.504072e-003	100.019	 99.76297	-7.14910	0.84562	0.84076	9.057195e-002	2.35345	100.254	 99.94629	-7.85156	-0.93188	-0.82900	 -6.62402	1.20326	6.76369	0.14549	2.630214e-002
25.35800	35.04222	6.64918	0.18048	0.22023	0.21673	3.911479e-002	8.311480e-003	1.500033e-003	100.018	 99.76312	-7.13440	0.84473	0.83988	9.035056e-002	2.35257	100.253	 99.94629	-7.83691	-0.93013	-0.83270	 -6.27246	1.20003	6.75660	0.14565	2.628657e-002
25.38900	43.71556	6.63983	0.18018	0.21991	0.21642	3.899615e-002	8.299790e-003	1.495483e-003	100.032	 99.77798	-7.11959	0.84361	0.83878	9.012520e-002	2.35169	100.267	 99.96094	-7.82227	-0.93013	-0.83179	 -6.33105	1.19639	6.74676	0.14587	2.628340e-002

##Temp./°C	Time/min	E'(10.000 Hz)/MPa	tan d(10.000 Hz)	Visc.Dyn.(10.000 Hz)/MPa*s	eta"(10.000 Hz)/MPa*s	eta'(10.000 Hz)/MPa*s	c'(10.000 Hz)/(N/µm)	c"(10.000 Hz)/(N/µm)	Smpl.Ampl.(10.000 Hz)/µm	As'(10.000 Hz)/µm	As"(10.000 Hz)/µm	F Sample(10.000 Hz)/N	Fs'(10.000 Hz)/N	Fs"(10.000 Hz)/N	F dyn.(10.000 Hz)/N	Ampl.(10.000 Hz)/µm	A'(10.000 Hz)/µm	A"(10.000 Hz)/µm	F stat.(10.000 Hz)/N	F stat. s(10.000 Hz)/N	Offset(10.000 Hz)/µm	E"(10.000 Hz)/MPa	|E|(10.000 Hz)/MPa	D'(10.000 Hz)/(1/MPa)	D"(10.000 Hz)/(1/MPa)
25.32100	 0.18222	7.18337	0.20250	0.11945	0.11707	2.370690e-002	8.979212e-003	1.818296e-003	 93.82617	93.47910	-8.06274	0.85959	0.85403	9.757563e-002	2.24707	 94.06018	93.58887	-9.40430	-0.83870	-0.76243	 -4.91016	1.45464	7.32917	0.13373	2.707975e-002
25.27000	 8.81222	7.15479	0.20215	0.11896	0.11660	2.357114e-002	8.943482e-003	1.807884e-003	100.12	99.75354	-8.55712	0.91353	0.90761	      0.10381	2.39477	100.371	99.87305	-9.99023	-1.10771	-0.80414	-19.54395	1.44631	7.29950	0.13428	2.714399e-002
25.26467	17.48778	7.14157	0.20177	0.11873	0.11639	2.348364e-002	8.926957e-003	1.801173e-003	100.045	99.68062	-8.52882	0.91109	0.90521	      0.10341	2.39125	100.296	99.79980	-9.96094	-1.00222	-0.78716	-13.84570	1.44094	7.28548	0.13455	2.714743e-002
25.29767	26.15556	7.13408	0.20118	0.11860	0.11627	2.339089e-002	8.917601e-003	1.794058e-003	100.013	99.65129	-8.49986	0.90975	0.90390	      0.10298	2.38949	100.264	99.77051	-9.93164	-1.00222	-0.79944	-13.05469	1.43525	7.27702	0.13472	2.710312e-002
25.35667	34.80111	7.12809	0.20049	0.11848	0.11617	2.329140e-002	8.910108e-003	1.786428e-003	100.01	99.65111	-8.47046	0.90884	0.90303	      0.10255	2.38861	100.261	99.77051	-9.90234	-1.00046	-0.80201	-12.77637	1.42914	7.26994	0.13487	2.704043e-002
25.38833	43.46556	7.11830	0.20061	0.11832	0.11601	2.327337e-002	8.897872e-003	1.785045e-003	100.025	99.66607	-8.47026	0.90775	0.90194	      0.10254	2.38774	100.275	99.78516	-9.90234	-1.00046	-0.80269	-12.73242	1.42804	7.26013	0.13505	2.709260e-002