Folder: Piep-DMA/Temperature Sweep TEST (part 2)

File: Single-OneSegment.txt
#EXPORTTYPE:  	DATA COMPARE
#FILE:        	10.ngb-dm2
#FORMAT:      	NETZSCH5
#FTYPE:       	ANSI
#IDENTITY:    	1
#DECIMAL:     	POINT
#SEPARATOR:   	TAB
#MTYPE:       	DMA
#INSTRUMENT:  	NETZSCH DMA 242
#PROJECT:     	Amtrol
#DATE/TIME:   	5/29/2024 9:25:24 AM (UTC+1)
#LABORATORY:  	Piep
#OPERATOR:    	LG
#REMARK:
#SAMPLEHOLDER:	SingleCantilever16
#SAMPLE:      	TESTSAMPLE
#SAMPLEDIM/MM:	16.000x10.720x3.700
#MATERIAL:
#CORR. CODE:  	0
#RANGE:       	25.0°C/10.0(K/min)/400.0°C/20.0(K/min)/25.0°C/
#SEGMENT:     	S1-2/2
#SEG. 1:      	25.0°C/10.0(K/min)/400.0°C
#SEG. 2:      	400.0°C/20.0(K/min)/25.0°C

##Temp./°C	Time/min	tan d(1.000 Hz)	E'(1.000 Hz)/MPa	E"(1.000 Hz)/MPa	Segment
 24.59167	 0.11778	 1.570956e-002	1313.22	      20.63008	1
 25.89100	 0.35111	 1.570572e-002	1313.69	      20.63247	1
 27.82267	 0.58556	 1.571492e-002	1314.03	      20.64993	1
 29.96367	 0.82000	 1.570785e-002	1313.24	      20.62822	1
 32.12400	 1.05333	 1.570780e-002	1312.63	      20.61848	1
 34.21067	 1.28667	 1.569900e-002	1311.3	      20.58605	1
 36.64633	 1.52111	 1.569059e-002	1310	      20.55466	1
 38.92667	 1.75444	 1.570212e-002	1308.93	      20.55304	1
 40.75367	 1.97222	 1.569384e-002	1307.85	      20.52521	1
 43.26800	 2.21778	 1.623005e-002	1305.91	      21.19492	1
 45.88533	 2.45111	 1.568704e-002	1304.28	      20.46032	1
 48.16967	 2.70333	 1.568035e-002	1301.54	      20.40857	1
 50.99033	 2.95333	 1.622235e-002	1299.25	      21.07692	1
 53.11600	 3.18667	 1.566040e-002	1295.92	      20.29462	1
 55.44067	 3.43667	 1.620869e-002	1293.75	      20.97007	1
 58.09700	 3.68778	 1.620234e-002	1291.04	      20.91792	1
 60.88334	 3.95444	 1.620158e-002	1287.97	      20.86717	1
 62.89034	 4.21667	 1.674525e-002	1284.17	      21.50374	1
 65.69700	 4.48444	 1.672814e-002	1280.24	      21.41611	1
 68.81133	 4.76889	 1.618551e-002	1276.68	      20.66379	1
 71.15067	 5.01889	 1.617357e-002	1272.35	      20.57845	1
 73.57233	 5.26889	 1.617774e-002	1268.86	      20.52733	1
 76.79200	 5.53778	 1.671242e-002	1263.93	      21.12335	1
 78.88067	 5.78667	 1.617339e-002	1259.9	      20.37686	1
 81.59967	 6.02000	 1.616900e-002	1255.74	      20.30413	1
 84.69133	 6.30000	 1.614474e-002	1249.47	      20.17233	1
 87.22600	 6.56778	 1.615100e-002	1244.52	      20.10030	1
 90.03300	 6.83333	 1.669994e-002	1239.57	      20.70072	1
 92.98100	 7.08667	 1.669426e-002	1234.89	      20.61562	1
 95.77467	 7.33556	 1.667590e-002	1228.48	      20.48598	1
 98.74333	 7.58667	 1.613753e-002	1224.75	      19.76452	1
100.701	 7.85444	 1.666020e-002	1218	      20.29207	1
103.298	 8.12111	 1.720368e-002	1213.14	      20.87042	1
106.167	 8.37111	 1.720585e-002	1208.58	      20.79464	1
108.51	 8.63778	 1.718969e-002	1202.94	      20.67813	1
111.334	 8.90111	 1.771545e-002	1196.79	      21.20161	1
114.538	 9.16667	 1.774824e-002	1192.2	      21.15939	1
117.276	 9.45333	 1.771610e-002	1186.09	      21.01284	1
119.628	 9.68444	 1.717354e-002	1181.24	      20.28602	1
121.736	 9.95333	 1.770228e-002	1175.83	      20.81493	1
124.553	10.20333	 1.826321e-002	1170.66	      21.38002	1
126.63	10.45333	 1.879749e-002	1164.31	      21.88613	1
129.917	10.71667	 1.877951e-002	1157.7	      21.74109	1
132.625	10.98778	 1.932953e-002	1150.82	      22.24480	1
135.029	11.28333	 2.039481e-002	1142.28	      23.29656	1
138.199	11.55000	 2.149777e-002	1133.92	      24.37667	1
139.922	11.81889	 2.148253e-002	1125.75	      24.18395	1
142.916	12.08444	 2.366884e-002	1116.43	      26.42469	1
145.97	12.36889	 2.474690e-002	1104.48	      27.33246	1
148.632	12.63778	 2.747586e-002	1091.98	      30.00306	1
151.984	12.88778	 3.017755e-002	1077.3	      32.51028	1
154.652	13.16667	 3.499904e-002	1056.61	      36.98033	1
156.441	13.42222	 4.203770e-002	1030.39	      43.31518	1
159.53	13.71778	 5.589249e-002	 985.398	      55.07636	1
162.47	13.96667	 7.332341e-002	 926.829	      67.95827	1
164.703	14.21778	       0.10169	 840.958	      85.51560	1
167.574	14.48444	       0.14875	 713.131	     106.076	1
168.657	14.73556	       0.21620	 557.66	     120.567	1
170.177	14.97000	       0.31067	 396.982	     123.331	1
172.457	15.25111	       0.48587	 219.786	     106.787	1
174.72	15.55222	       0.73520	  95.56359	      70.25827	1
176.138	15.85333	       0.82094	  43.42403	      35.64841	1
178.351	16.13556	       0.69203	  26.34819	      18.23386	1
179.886	16.42000	       0.51496	  19.25229	       9.91418	1
182.593	16.70444	       0.36463	  15.84606	       5.77790	1
183.634	16.97111	       0.25071	  14.30629	       3.58675	1
184.752	17.25000	       0.16318	  13.37751	       2.18290	1
187.04	17.55111	       0.10495	  12.99778	       1.36416	1
188.828	17.85111	 6.226162e-002	  12.79470	       0.79662	1
189.904	18.13556	 4.293395e-002	  12.76577	       0.54808	1
191.854	18.42000	 2.818581e-002	  12.77003	       0.35993	1
193.429	18.68889	 2.324455e-002	  12.89563	       0.29975	1
194.499	18.95444	 1.333697e-002	  12.93333	       0.17249	1
195.912	19.25000	 1.819832e-002	  12.99434	       0.23648	1
197.521	19.53333	 1.338540e-002	  13.05776	       0.17478	1
198.74	19.83667	 1.340938e-002	  13.12006	       0.17593	1
200.116	20.13444	 8.473083e-003	  13.15615	       0.11147	1
201.536	20.41889	 1.327888e-002	  13.21734	       0.17551	1
202.785	20.68778	 8.515203e-003	  13.21846	       0.11256	1
203.989	20.95333	 1.332706e-002	  13.34211	       0.17781	1
204.478	21.22222	 8.422385e-003	  13.31553	       0.11215	1
205.811	21.50444	 8.464225e-003	  13.37788	       0.11323	1
207.057	21.78333	 8.505764e-003	  13.44029	       0.11432	1
207.833	22.08444	 8.505770e-003	  13.44030	       0.11432	1
208.841	22.38556	 8.505779e-003	  13.44031	       0.11432	1
209.712	22.66778	 8.668965e-003	  13.69054	       0.11868	1
210.486	22.96889	 8.505792e-003	  13.44032	       0.11432	1
211.725	23.25333	 8.464273e-003	  13.37794	       0.11323	1
212.388	23.52000	 3.754257e-003	  13.37899	 5.022817e-002	1
213.071	23.81778	 8.505813e-003	  13.44035	       0.11432	1
213.734	24.11778	 3.812984e-003	  13.44140	 5.125186e-002	1
214.464	24.41889	-9.551503e-004	  13.38000	-1.277991e-002	1
215.294	24.72000	 3.695102e-003	  13.31668	 4.920650e-002	1
215.696	25.00222	 3.695104e-003	  13.31669	 4.920654e-002	1
216.45	25.28556	 3.635486e-003	  13.25442	 4.818625e-002	1
217.782	25.56667	 3.752271e-003	  13.21965	 4.960369e-002	1
218.17	25.85000	 3.752272e-003	  13.21965	 4.960373e-002	1
218.855	26.13333	 3.752276e-003	  13.21966	 4.960379e-002	1
219.763	26.43444	 8.515338e-003	  13.21862	       0.11256	1
220.163	26.73444	 3.632053e-003	  13.09515	 4.756229e-002	1
220.756	27.03556	 3.750132e-003	  13.06013	 4.897721e-002	1
221.449	27.31778	 8.567550e-003	  13.05909	       0.11188	1
221.896	27.60444	 3.628431e-003	  12.93573	 4.693639e-002	1
222.776	27.90000	 3.628435e-003	  12.93573	 4.693647e-002	1
223.132	28.17222	 3.628437e-003	  12.93574	 4.693650e-002	1
223.637	28.46778	 3.628439e-003	  12.93574	 4.693655e-002	1
224.245	28.76778	 3.628442e-003	  12.93575	 4.693660e-002	1
224.579	29.05222	-1.305111e-003	  12.87462	-1.680280e-002	1
225.119	29.35333	 8.482520e-003	  12.93471	       0.10972	1
225.681	29.62111	 3.504809e-003	  12.81159	 4.490219e-002	1
225.928	29.88778	 3.747857e-003	  12.90048	 4.834916e-002	1
226.327	30.15444	 3.747859e-003	  12.90049	 4.834920e-002	1
226.74	30.43333	 3.624637e-003	  12.77618	 4.630901e-002	1
227.012	30.73333	 3.686495e-003	  12.83831	 4.732834e-002	1
227.567	31.03444	 8.578398e-003	  12.83727	       0.11012	1
227.987	31.33556	 3.624643e-003	  12.77619	 4.630912e-002	1
228.417	31.61889	 3.624644e-003	  12.77619	 4.630915e-002	1
228.761	31.91889	 3.562293e-003	  12.71413	 4.529147e-002	1
229.313	32.18556	 3.624648e-003	  12.77620	 4.630923e-002	1
229.442	32.45333	 8.535445e-003	  12.77516	       0.10904	1
229.612	32.72111	 3.499442e-003	  12.65214	 4.427542e-002	1
230.413	33.01778	 3.562300e-003	  12.71415	 4.529161e-002	1
230.507	33.31778	-1.366881e-003	  12.71513	-1.738006e-002	1
231.092	33.60111	 3.562303e-003	  12.71415	 4.529166e-002	1
231.502	33.88556	-1.366880e-003	  12.71513	-1.738006e-002	1
231.745	34.17000	 3.499450e-003	  12.65216	 4.427559e-002	1
232.292	34.43778	 3.499453e-003	  12.65216	 4.427564e-002	1
232.557	34.70444	 3.436089e-003	  12.59022	 4.326113e-002	1
232.862	34.98333	 3.499455e-003	  12.65217	 4.427569e-002	1
233.075	35.28444	 3.499456e-003	  12.65217	 4.427570e-002	1
233.649	35.58444	-1.531714e-003	  12.59121	-1.928614e-002	1
233.937	35.88333	 3.620659e-003	  12.61650	 4.568005e-002	1
234.114	36.16778	 3.620660e-003	  12.61650	 4.568006e-002	1
234.521	36.45222	 3.557510e-003	  12.55449	 4.466273e-002	1
234.8	36.72000	 3.557511e-003	  12.55449	 4.466275e-002	1
235.058	36.98667	 3.493844e-003	  12.49254	 4.364700e-002	1
235.804	37.25444	 3.493847e-003	  12.49255	 4.364706e-002	1
235.788	37.55000	 3.493847e-003	  12.49255	 4.364706e-002	1

File: Td.txt
#EXPORTTYPE:  	DATA COMPARE                 	DATA COMPARE                 	DATA COMPARE
#FILE:        	Sample1.ngb-dm2                    	Sample2.ngb-dm2                    	Sample3.ngb-dm2
#FORMAT:      	NETZSCH5                     	NETZSCH5                     	NETZSCH5
#FTYPE:       	ANSI                         	ANSI                         	ANSI
#IDENTITY:    	3	2	1
#DECIMAL:     	POINT                        	POINT                        	POINT
#SEPARATOR:   	TAB                          	TAB                          	TAB
#MTYPE:       	DMA                          	DMA                          	DMA
#INSTRUMENT:  	NETZSCH DMA 242              	NETZSCH DMA 242              	NETZSCH DMA 242
#PROJECT:     	Amtrol                       	Amtrol                       	Amtrol
#DATE/TIME:   	5/29/2024 12:46:57 PM (UTC+1)	5/29/2024 11:00:19 AM (UTC+1)	5/29/2024 9:25:24 AM (UTC+1)
#LABORATORY:  	Piep                         	Piep                         	Piep
#OPERATOR:    	LG                           	LG                           	LG
#REMARK:
#SAMPLEHOLDER:	SingleCantilever16           	SingleCantilever16           	SingleCantilever16
#SAMPLE:      	Resin                        	Resin                        	Resin
#SAMPLEDIM/MM:	16.000x10.660x3.660          	16.000x10.560x3.640          	16.000x10.720x3.700
#MATERIAL:
#CORR. CODE:  	0	0	0
#RANGE:       	90.0°C/3.0(K/min)/260.0°C    	90.0°C/5.0(K/min)/260.0°C    	25.0°C/10.0(K/min)/400.0°C
#SEGMENT:     	S1/2                         	S1/2                         	S1/2
#SEG. 1:      	90.0°C/3.0(K/min)/260.0°C    	90.0°C/5.0(K/min)/260.0°C    	25.0°C/10.0(K/min)/400.0°C

##Temp./°C	tan d(1.000 Hz)	tan d(1.000 Hz)	tan d(1.000 Hz)
24.59108	              	              	1.57E-02
25.59108	              	              	1.56E-02
26.59108	              	              	1.53E-02
27.59108	              	              	1.56E-02
28.59108	              	              	1.53E-02
29.59108	              	              	1.55E-02
30.59108	              	              	1.58E-02
31.59108	              	              	1.57E-02
32.59108	              	              	1.57E-02
33.59108	              	              	1.57E-02
34.59108	              	              	1.57E-02
35.59108	              	              	1.57E-02
36.59108	              	              	1.57E-02
37.59108	              	              	1.57E-02
38.59108	              	              	1.57E-02
39.59108	              	              	1.57E-02
40.59108	              	              	1.57E-02
41.59108	              	              	1.56E-02
42.59108	              	              	1.60E-02
43.59108	              	              	1.62E-02
44.59108	              	              	1.57E-02
45.59108	              	              	1.56E-02
46.59108	              	              	1.61E-02
47.59108	              	              	1.60E-02
48.59108	              	              	1.56E-02
49.59108	              	              	1.58E-02
50.59108	              	              	1.61E-02
51.59108	              	              	1.63E-02
52.59108	              	              	1.59E-02
53.59108	              	              	1.58E-02
54.59108	              	              	1.62E-02
55.59108	              	              	1.62E-02
56.59108	              	              	1.62E-02
57.59108	              	              	1.63E-02
58.59108	              	              	1.60E-02
59.59108	              	              	1.57E-02
60.59108	              	              	1.61E-02
61.59108	              	              	1.62E-02
62.59108	              	              	1.67E-02
63.59108	              	              	1.66E-02
64.59108	              	              	1.62E-02
65.59108	              	              	1.67E-02
66.59108	              	              	1.66E-02
67.59108	              	              	1.62E-02
68.59108	              	              	1.62E-02
69.59108	              	              	1.62E-02
70.59108	              	              	1.61E-02
71.59108	              	              	1.64E-02
72.59108	              	              	1.67E-02
73.59108	              	              	1.62E-02
74.59108	              	              	1.64E-02
75.59108	              	              	1.67E-02
76.59108	              	              	1.67E-02
77.59108	              	              	1.68E-02
78.59108	              	              	1.63E-02
79.59108	              	              	1.61E-02
80.59108	              	              	1.61E-02
81.59108	              	              	1.62E-02
82.59108	              	              	1.67E-02
83.59108	              	              	1.65E-02
84.59108	              	              	1.62E-02
85.59108	              	              	1.66E-02
86.59108	              	              	1.64E-02
87.59108	1.39E-02	              	1.62E-02
88.59108	1.39E-02	              	1.64E-02
89.59108	1.39E-02	              	1.67E-02
90.59108	1.34E-02	1.28E-02	1.67E-02
91.59108	1.40E-02	1.28E-02	1.67E-02
92.59108	1.39E-02	1.28E-02	1.67E-02
93.59108	1.34E-02	1.23E-02	1.67E-02
94.59108	1.39E-02	1.28E-02	1.67E-02
95.59108	1.41E-02	1.23E-02	1.67E-02
96.59108	1.44E-02	1.28E-02	1.67E-02
97.59108	1.45E-02	1.28E-02	1.65E-02
98.59108	1.45E-02	1.28E-02	1.62E-02
99.59108	1.49E-02	1.32E-02	1.67E-02
100.591	1.44E-02	1.26E-02	1.67E-02
101.591	1.50E-02	1.34E-02	1.66E-02
102.591	1.49E-02	1.33E-02	1.68E-02
103.591	1.51E-02	1.37E-02	1.72E-02
104.591	1.55E-02	1.39E-02	1.72E-02
105.591	1.57E-02	1.38E-02	1.73E-02
106.591	1.55E-02	1.37E-02	1.70E-02
107.591	1.57E-02	1.41E-02	1.67E-02
108.591	1.61E-02	1.41E-02	1.72E-02
109.591	1.61E-02	1.44E-02	1.68E-02
110.591	1.61E-02	1.39E-02	1.70E-02
111.591	1.66E-02	1.44E-02	1.77E-02
112.591	1.66E-02	1.44E-02	1.73E-02
113.591	1.61E-02	1.50E-02	1.73E-02
114.591	1.69E-02	1.50E-02	1.78E-02
115.591	1.76E-02	1.51E-02	1.77E-02
116.591	1.72E-02	1.56E-02	1.77E-02
117.591	1.77E-02	1.55E-02	1.78E-02
118.591	1.81E-02	1.55E-02	1.76E-02
119.591	1.88E-02	1.66E-02	1.72E-02
120.591	1.92E-02	1.60E-02	1.75E-02
121.591	1.92E-02	1.62E-02	1.77E-02
122.591	2.00E-02	1.66E-02	1.77E-02
123.591	2.05E-02	1.65E-02	1.79E-02
124.591	2.10E-02	1.71E-02	1.83E-02
125.591	2.10E-02	1.72E-02	1.82E-02
126.591	2.24E-02	1.72E-02	1.88E-02
127.591	2.29E-02	1.77E-02	1.88E-02
128.591	2.41E-02	1.77E-02	1.88E-02
129.591	2.49E-02	1.83E-02	1.87E-02
130.591	2.68E-02	1.83E-02	1.93E-02
131.591	2.79E-02	1.77E-02	1.93E-02
132.591	2.95E-02	1.89E-02	1.93E-02
133.591	3.13E-02	1.89E-02	2.00E-02
134.591	3.36E-02	1.99E-02	2.03E-02
135.591	3.75E-02	1.99E-02	2.03E-02
136.591	4.02E-02	2.02E-02	2.07E-02
137.591	4.55E-02	2.10E-02	2.12E-02
138.591	5.14E-02	2.13E-02	2.16E-02
139.591	5.87E-02	2.22E-02	2.14E-02
140.591	6.90E-02	2.21E-02	2.17E-02
141.591	8.02E-02	2.35E-02	2.20E-02
142.591	9.08E-02	2.43E-02	2.26E-02
143.591	0.11195	2.53E-02	2.41E-02
144.591	0.14701	2.60E-02	2.44E-02
145.591	0.16896	2.85E-02	2.47E-02
146.591	0.20572	2.92E-02	2.57E-02
147.591	0.27237	3.03E-02	2.67E-02
148.591	0.31623	3.22E-02	2.75E-02
149.591	0.39887	3.46E-02	2.86E-02
150.591	0.46954	3.88E-02	2.94E-02
151.591	0.56493	4.14E-02	2.99E-02
152.591	0.66782	4.38E-02	3.13E-02
153.591	0.762	5.22E-02	3.32E-02
154.591	0.85862	5.52E-02	3.49E-02
155.591	0.96788	6.66E-02	3.91E-02
156.591	1.00361	8.24E-02	4.24E-02
157.591	1.02245	9.06E-02	4.49E-02
158.591	1.00496	0.10185	4.87E-02
159.591	0.9425	0.13244	5.63E-02
160.591	0.83896	0.17088	6.14E-02
161.591	0.75215	0.19172	6.70E-02
162.591	0.68883	0.21994	7.42E-02
163.591	0.58729	0.32299	8.29E-02
164.591	0.47989	0.39512	9.90E-02
165.591	0.42178	0.51923	0.12035
166.591	0.34202	0.55632	0.13274
167.591	0.29942	0.70429	0.14423
168.591	0.22879	0.86163	0.21377
169.591	0.19468	0.91902	0.27736
170.591	0.1577	0.96383	0.3451
171.591	0.12421	1.01396	0.42205
172.591	0.10486	0.98672	0.49882
173.591	8.76E-02	0.96717	0.62071
174.591	6.68E-02	0.92058	0.72092
175.591	5.42E-02	0.77158	0.82645
176.591	5.06E-02	0.69784	0.80777
177.591	3.49E-02	0.58497	0.76135
178.591	3.49E-02	0.53798	0.66718
179.591	2.66E-02	0.43553	0.54889
180.591	2.40E-02	0.39349	0.45998
181.591	2.48E-02	0.36162	0.41108
182.591	1.89E-02	0.28444	0.36449
183.591	1.89E-02	0.21971	0.25456
184.591	1.85E-02	0.19888	0.16835
185.591	1.38E-02	0.18362	0.14118
186.591	1.36E-02	0.12412	0.11805
187.591	1.33E-02	0.10845	8.30E-02
188.591	1.24E-02	9.07E-02	6.51E-02
189.591	1.12E-02	6.34E-02	5.48E-02
190.591	8.52E-03	5.67E-02	3.98E-02
191.591	5.83E-03	4.53E-02	3.01E-02
192.591	1.34E-02	4.62E-02	2.78E-02
193.591	8.61E-03	3.48E-02	2.12E-02
194.591	7.98E-03	3.03E-02	1.35E-02
195.591	8.11E-03	2.52E-02	1.91E-02
196.591	9.10E-03	1.96E-02	1.44E-02
197.591	9.04E-03	1.93E-02	1.34E-02
198.591	8.33E-03	1.97E-02	1.33E-02
199.591	3.41E-03	1.68E-02	1.07E-02
200.591	8.96E-03	1.35E-02	9.98E-03
201.591	8.46E-03	1.38E-02	9.94E-03
202.591	8.37E-03	1.39E-02	8.42E-03
203.591	3.93E-03	1.46E-02	1.07E-02
204.591	2.69E-03	9.26E-03	8.50E-03
205.591	8.73E-03	9.68E-03	8.46E-03
206.591	8.56E-03	3.86E-03	8.45E-03
207.591	-1.10E-03	7.37E-03	3.94E-03
208.591	3.48E-03	9.91E-03	8.41E-03
209.591	8.83E-03	1.08E-02	8.66E-03
210.591	3.36E-03	7.92E-03	8.54E-03
211.591	3.52E-03	8.59E-03	8.47E-03
212.591	5.71E-03	8.55E-03	4.60E-03
213.591	1.03E-02	5.36E-03	3.31E-03
214.591	0.18719	4.51E-03	-5.60E-04
215.591	0.36409	5.22E-03	4.68E-03
216.591	0.56258	8.60E-03	3.78E-03
217.591	0.63447	7.30E-03	3.21E-03
218.591	0.73393	8.70E-03	3.97E-03
219.591	0.9039	6.65E-03	7.39E-03
220.591	1.01843	5.02E-03	3.43E-03
221.591	1.20456	5.33E-03	8.81E-03
222.591	1.43913	4.16E-03	5.38E-03
223.591	1.57359	7.79E-03	4.21E-03
224.591	1.54592	6.49E-03	-1.29E-03
225.591	1.42879	-3.27E-04	3.21E-03
226.591	1.32899	3.61E-03	3.55E-03
227.591	1.37045	8.37E-03	8.47E-03
228.591	1.39099	7.83E-03	3.64E-03
229.591	1.63079	-1.12E-03	3.41E-03
230.591	1.77288	3.90E-03	1.53E-04
231.591	1.93721	2.94E-03	3.89E-03
232.591	1.96637	3.27E-03	3.49E-03
233.591	1.77211	3.20E-03	-1.05E-03
234.591	1.64533	3.37E-03	1.85E-03
235.591	1.54062	3.39E-03	3.52E-03
236.591	1.59094	3.33E-03	3.50E-03
237.591	1.67928	3.28E-03	3.50E-03
238.591	1.83018	3.33E-03
239.591	1.89303
240.591	1.62037
241.591	1.48545
242.591	1.67197
243.591	1.82352
244.591	1.81377
245.591	1.87419
246.591	1.74334
247.591	1.79707
248.591	1.8265
249.591	1.95252
250.591	2.07068
251.591	1.78049