Folder: Piep-DMA/Temperature Sweep TEST

Note: Temperature Sweep TEST/Ed.txt
#EXPORTTYPE:  	DATA COMPARE                                 	DATA COMPARE                                 	DATA COMPARE                                  
#FILE:        	3.ngb-dm2                                    	5.ngb-dm2                                    	10.ngb-dm2                                    
#FORMAT:      	NETZSCH5                                     	NETZSCH5                                     	NETZSCH5                                      
#FTYPE:       	ANSI                                         	ANSI                                         	ANSI                                          
#IDENTITY:    	3                                            	2                                            	1                                             
#DECIMAL:     	POINT                                        	POINT                                        	POINT                                         
#SEPARATOR:   	TAB                                          	TAB                                          	TAB                                           
#MTYPE:       	DMA                                          	DMA                                          	DMA                                           
#INSTRUMENT:  	NETZSCH DMA 242                              	NETZSCH DMA 242                              	NETZSCH DMA 242                               
#PROJECT:     	Amtrol                                       	Amtrol                                       	Amtrol                                        
#DATE/TIME:   	5/29/2024 12:46:57 PM (UTC+1)                	5/29/2024 11:00:19 AM (UTC+1)                	5/29/2024 9:25:24 AM (UTC+1)                  
#LABORATORY:  	Piep                                         	Piep                                         	Piep                                          
#OPERATOR:    	LG                                           	LG                                           	LG                                            
#REMARK:      	                                             	                                             	                                              
#SAMPLEHOLDER:	SingleCantilever16                           	SingleCantilever16                           	SingleCantilever16                            
#SAMPLE:      	Resin                                        	Resin                                        	Resin                                         
#SAMPLEDIM/MM:	16.000x10.660x3.660                          	16.000x10.560x3.640                          	16.000x10.720x3.700                           
#MATERIAL:    	                                             	                                             	                                              
#CORR. CODE:  	0                                            	0                                            	0                                             
#RANGE:       	90.0°C/3.0(K/min)/260.0°C/20.0(K/min)/25.0°C/	90.0°C/5.0(K/

Note: Temperature Sweep TEST/Ep.txt
#EXPORTTYPE:  	DATA COMPARE                                 	DATA COMPARE                                 	DATA COMPARE                                  
#FILE:        	3.ngb-dm2                                    	5.ngb-dm2                                    	10.ngb-dm2                                    
#FORMAT:      	NETZSCH5                                     	NETZSCH5                                     	NETZSCH5                                      
#FTYPE:       	ANSI                                         	ANSI                                         	ANSI                                          
#IDENTITY:    	3                                            	2                                            	1                                             
#DECIMAL:     	POINT                                        	POINT                                        	POINT                                         
#SEPARATOR:   	TAB                                          	TAB                                          	TAB                                           
#MTYPE:       	DMA                                          	DMA                                          	DMA                                           
#INSTRUMENT:  	NETZSCH DMA 242                              	NETZSCH DMA 242                              	NETZSCH DMA 242                               
#PROJECT:     	Amtrol                                       	Amtrol                                       	Amtrol                                        
#DATE/TIME:   	5/29/2024 12:46:57 PM (UTC+1)                	5/29/2024 11:00:19 AM (UTC+1)                	5/29/2024 9:25:24 AM (UTC+1)                  
#LABORATORY:  	Piep                                         	Piep                                         	Piep                                          
#OPERATOR:    	LG                                           	LG                                           	LG                                            
#REMARK:      	                                             	                                             	                                              
#SAMPLEHOLDER:	SingleCantilever16                           	SingleCantilever16                           	SingleCantilever16                            
#SAMPLE:      	Resin                                        	Resin                                        	Resin                                         
#SAMPLEDIM/MM:	16.000x10.660x3.660                          	16.000x10.560x3.640                          	16.000x10.720x3.700                           
#MATERIAL:    	                                             	                                             	                                              
#CORR. CODE:  	0                                            	0                                            	0                                             
#RANGE:       	90.0°C/3.0(K/min)/260.0°C/20.0(K/min)/25.0°C/	90.0°C/5.0(K/

File: Ed - Short.txt
#EXPORTTYPE:  	DATA COMPARE                 	DATA COMPARE                 	DATA COMPARE
#FILE:        	Sample1.ngb-dm2                    	Sample2.ngb-dm2                    	Sample3.ngb-dm2
#FORMAT:      	NETZSCH5                     	NETZSCH5                     	NETZSCH5
#FTYPE:       	ANSI                         	ANSI                         	ANSI
#IDENTITY:    	3	2	1
#DECIMAL:     	POINT                        	POINT                        	POINT
#SEPARATOR:   	TAB                          	TAB                          	TAB
#MTYPE:       	DMA                          	DMA                          	DMA
#INSTRUMENT:  	NETZSCH DMA 242              	NETZSCH DMA 242              	NETZSCH DMA 242
#PROJECT:     	Amtrol                       	Amtrol                       	Amtrol
#DATE/TIME:   	5/29/2024 12:46:57 PM (UTC+1)	5/29/2024 11:00:19 AM (UTC+1)	5/29/2024 9:25:24 AM (UTC+1)
#LABORATORY:  	Piep                         	Piep                         	Piep
#OPERATOR:    	LG                           	LG                           	LG
#REMARK:
#SAMPLEHOLDER:	SingleCantilever16           	SingleCantilever16           	SingleCantilever16
#SAMPLE:      	Resin                        	Resin                        	Resin
#SAMPLEDIM/MM:	16.000x10.660x3.660          	16.000x10.560x3.640          	16.000x10.720x3.700
#MATERIAL:
#CORR. CODE:  	0	0	0
#RANGE:       	90.0°C/3.0(K/min)/260.0°C    	90.0°C/5.0(K/min)/260.0°C    	25.0°C/10.0(K/min)/400.0°C
#SEGMENT:     	S1/2                         	S1/2                         	S1/2
#SEG. 1:      	90.0°C/3.0(K/min)/260.0°C    	90.0°C/5.0(K/min)/260.0°C    	25.0°C/10.0(K/min)/400.0°C

##Temp./°C	"E""(1.000 Hz)/MPa"	"E""(1.000 Hz)/MPa"	"E""(1.000 Hz)/MPa"
87.59108	16.75042	              	20.10962
88.59108	16.75042	              	20.41293
89.59108	16.75336	              	20.76096
90.59108	16.09138	15.09324	20.66205
91.59108	16.78097	15.06084	20.62682
92.59108	16.73573	15.07195	20.62241
93.59108	16.06382	14.431	20.56441
94.59108	16.67622	15.1075	20.49166
95.59108	16.8112	14.43475	20.47905
96.59108	17.26479	15.04045	20.54354
97.59108	17.24675	15.03296	20.30106
98.59108	17.24521	15.03814	19.80134
99.59108	17.7427	15.56849	20.41337
100.591	17.1516	14.8028	20.30635

File: Ep - Short.txt
#EXPORTTYPE:  	DATA COMPARE                 	DATA COMPARE                 	DATA COMPARE
#FILE:        	Sample1.ngb-dm2                    	Sample2.ngb-dm2                    	Sample3.ngb-dm2
#FORMAT:      	NETZSCH5                     	NETZSCH5                     	NETZSCH5
#FTYPE:       	ANSI                         	ANSI                         	ANSI
#IDENTITY:    	3	2	1
#DECIMAL:     	POINT                        	POINT                        	POINT
#SEPARATOR:   	TAB                          	TAB                          	TAB
#MTYPE:       	DMA                          	DMA                          	DMA
#INSTRUMENT:  	NETZSCH DMA 242              	NETZSCH DMA 242              	NETZSCH DMA 242
#PROJECT:     	Amtrol                       	Amtrol                       	Amtrol
#DATE/TIME:   	5/29/2024 12:46:57 PM (UTC+1)	5/29/2024 11:00:19 AM (UTC+1)	5/29/2024 9:25:24 AM (UTC+1)
#LABORATORY:  	Piep                         	Piep                         	Piep
#OPERATOR:    	LG                           	LG                           	LG
#REMARK:
#SAMPLEHOLDER:	SingleCantilever16           	SingleCantilever16           	SingleCantilever16
#SAMPLE:      	Resin                        	Resin                        	Resin
#SAMPLEDIM/MM:	16.000x10.660x3.660          	16.000x10.560x3.640          	16.000x10.720x3.700
#MATERIAL:
#CORR. CODE:  	0	0	0
#RANGE:       	90.0°C/3.0(K/min)/260.0°C    	90.0°C/5.0(K/min)/260.0°C    	25.0°C/10.0(K/min)/400.0°C
#SEGMENT:     	S1/2                         	S1/2                         	S1/2
#SEG. 1:      	90.0°C/3.0(K/min)/260.0°C    	90.0°C/5.0(K/min)/260.0°C    	25.0°C/10.0(K/min)/400.0°C

##Temp./°C	E'(1.000 Hz)/MPa	E'(1.000 Hz)/MPa	E'(1.000 Hz)/MPa
89.59108	1204.05	          	1240.44
90.59108	1203.16	1179.16	1238.57
91.59108	1202.17	1178.36	1236.89
92.59108	1201.65	1179.27	1235.6
93.59108	1200.15	1178.53	1232.92
94.59108	1199.22	1178.38	1230.34
95.59108	1196.95	1177.77	1228.74
96.59108	1195.44	1177.15	1227.37
97.59108	1193.51	1176.09	1226.35
98.59108	1192.65	1175.59	1225.23
99.59108	1190.05	1174.24	1219.53
100.591	1187.4	1173.07	1218.13
101.591	1185.69	1171.62	1216.87

File: Ep.txt
#EXPORTTYPE:  	DATA COMPARE                 	DATA COMPARE                 	DATA COMPARE
#FILE:        	Sample1.ngb-dm2                    	Sample2.ngb-dm2                    	Sample3.ngb-dm2
#FORMAT:      	NETZSCH5                     	NETZSCH5                     	NETZSCH5
#FTYPE:       	ANSI                         	ANSI                         	ANSI
#IDENTITY:    	3	2	1
#DECIMAL:     	POINT                        	POINT                        	POINT
#SEPARATOR:   	TAB                          	TAB                          	TAB
#MTYPE:       	DMA                          	DMA                          	DMA
#INSTRUMENT:  	NETZSCH DMA 242              	NETZSCH DMA 242              	NETZSCH DMA 242
#PROJECT:     	Amtrol                       	Amtrol                       	Amtrol
#DATE/TIME:   	5/29/2024 12:46:57 PM (UTC+1)	5/29/2024 11:00:19 AM (UTC+1)	5/29/2024 9:25:24 AM (UTC+1)
#LABORATORY:  	Piep                         	Piep                         	Piep
#OPERATOR:    	LG                           	LG                           	LG
#REMARK:
#SAMPLEHOLDER:	SingleCantilever16           	SingleCantilever16           	SingleCantilever16
#SAMPLE:      	Resin                        	Resin                        	Resin
#SAMPLEDIM/MM:	16.000x10.660x3.660          	16.000x10.560x3.640          	16.000x10.720x3.700
#MATERIAL:
#CORR. CODE:  	0	0	0
#RANGE:       	90.0°C/3.0(K/min)/260.0°C    	90.0°C/5.0(K/min)/260.0°C    	25.0°C/10.0(K/min)/400.0°C
#SEGMENT:     	S1/2                         	S1/2                         	S1/2
#SEG. 1:      	90.0°C/3.0(K/min)/260.0°C    	90.0°C/5.0(K/min)/260.0°C    	25.0°C/10.0(K/min)/400.0°C

##Temp./°C	E'(1.000 Hz)/MPa	E'(1.000 Hz)/MPa	E'(1.000 Hz)/MPa
24.59108	          	          	1313.22
25.59108	          	          	1313.84
26.59108	          	          	1313.48
27.59108	          	          	1314
28.59108	          	          	1313.43
29.59108	          	          	1313.25
30.59108	          	          	1312.91
31.59108	          	          	1312.6
32.59108	          	          	1312.46
33.59108	          	          	1311.67
34.59108	          	          	1311.32
35.59108	          	          	1311.22
36.59108	          	          	1310.06
37.59108	          	          	1309.35
38.59108	          	          	1308.97
39.59108	          	          	1308.93
40.59108	          	          	1308.12
41.59108	          	          	1307.17
42.59108	          	          	1306.38
43.59108	          	          	1305.79
44.59108	          	          	1305.47
45.59108	          	          	1304.64
46.59108	          	          	1303.31
47.59108	          	          	1302.15
48.59108	          	          	1301.07
49.59108	          	          	1300.12
50.59108	          	          	1299.42
51.59108	          	          	1299.17
52.59108	          	          	1297.25
53.59108	          	          	1295.642
54.59108	          	          	1295.54
55.59108	          	          	1293.61
56.59108	          	          	1293.31
57.59108	          	          	1291.92
58.59108	          	          	1290.55
59.59108	          	          	1289.92
60.59108	          	          	1288.59
61.59108	          	          	1285.47
62.59108	          	          	1284.38
63.59108	          	          	1283.78
64.59108	          	          	1282.88
65.59108	          	          	1280.43
66.59108	          	          	1279.51
67.59108	          	          	1278.88
68.59108	          	          	1277.05
69.59108	          	          	1275.98
70.59108	          	          	1273.86
71.59108	          	          	1271.85
72.59108	          	          	1271.22
73.59108	          	          	1268.83
74.59108	          	          	1267.39
75.59108	          	          	1266.12
76.59108	          	          	1264.33
77.59108	          	          	1262.48
78.59108	          	          	1260.52
79.59108	          	          	1258.47
80.59108	          	          	1257.03
81.59108	          	          	1255.75
82.59108	          	          	1253.27
83.59108	          	          	1251.32
84.59108	          	          	1249.65
85.59108	          	          	1247.53
86.59108	          	          	1245.56
87.59108	1203.79	          	1243.92
88.59108	1203.79	          	1242.24
89.59108	1204.05	          	1240.44
90.59108	1203.16	1179.16	1238.57
91.59108	1202.17	1178.36	1236.89
92.59108	1201.65	1179.27	1235.6
93.59108	1200.15	1178.53	1232.92
94.59108	1199.22	1178.38	1230.34
95.59108	1196.95	1177.77	1228.74
96.59108	1195.44	1177.15	1227.37
97.59108	1193.51	1176.09	1226.35
98.59108	1192.65	1175.59	1225.23
99.59108	1190.05	1174.24	1219.53
100.591	1187.4	1173.07	1218.13
101.591	1185.69	1171.62	1216.87
102.591	1183.33	1170.53	1214.94
103.591	1181.68	1169.1	1212.68
104.591	1178.64	1167.86	1211.34
105.591	1176.75	1164.97	1209.72
106.591	1175.246	1163.51	1207.99
107.591	1172.18	1162.83	1206.4
108.591	1169.55	1160	1202.78
109.591	1167.81	1158.34	1201.38
110.591	1165.02	1158.13	1199.4
111.591	1161.77	1153.14	1196.06
112.591	1159.65	1152.42	1194.09
113.591	1156.08	1149.37	1193.01
114.591	1153.47	1147.55	1192.12
115.591	1150.42	1145.07	1189.37
116.591	1147.58	1143.36	1187.33
117.591	1143.36	1143.02	1185.51
118.591	1140.63	1140.82	1183.33
119.591	1137.02	1137.25	1181.3
120.591	1133.68	1133.23	1180.22
121.591	1131.22	1131.33	1176.47
122.591	1126.8	1130.13	1173.78
123.591	1122.42	1128.37	1172.23
124.591	1116.99	1124.69	1170.58
125.591	1112.92	1124.34	1167.8
126.591	1107.92	1121.56	1164.41
127.591	1101.84	1116.68	1162.45
128.591	1097.39	1114.62	1160.71
129.591	1091.7	1111.81	1158.67
130.591	1083.87	1110.48	1154.18
131.591	1077.25	1108.08	1152.56
132.591	1069.97	1104.35	1150.88
133.591	1062.82	1100.25	1146.08
134.591	1053.1	1095.28	1143.55
135.591	1039.57	1093.07	1139.7
136.591	1028.69	1092.38	1136.72
137.591	1012.39	1086.88	1134.98
138.591	993.685	1085.24	1133.1
139.591	972.866	1078.3	1125.7
140.591	944.377	1076.61	1124.6
141.591	914.529	1072.05	1123.11
142.591	888.125	1068.1	1120.77
143.591	838.127	1063.05	1114.45
144.591	761.587	1058.11	1112.54
145.591	717.421	1047.27	1110.19
146.591	650.676	1043.22	1100.24
147.591	544.841	1040.3	1096.15
148.591	486.153	1030.6	1092.16
149.591	392.057	1018.54	1087.3
150.591	328.499	1003.26	1083
151.591	258.639	996.582	1079.13
152.591	198.709	988.558	1072.94
153.591	154.3397	962.726	1064.97
154.591	116.201	952.14	1057.2
155.591	77.48285	921.442	1041.01
156.591	63.31393	879.195	1028.92
157.591	46.49151	858.21	1019.61
158.591	38.99034	831.826	1007.01
159.591	30.74583	764.832	984.288
160.591	24.75667	692.215	967.912
161.591	21.78208	655.172	948.994
162.591	20.07692	609.473	923.778
163.591	17.87175	474.487	896.46
164.591	16.1541	401.277	848.702
165.591	15.38735	300.822	787.803
166.591	14.48119	275.662	754.2839
167.591	14.0345	192.9821	723.944
168.591	13.43705	125.11	562.7165
169.591	13.17763	103.435	447.473
170.591	12.97761	85.7478	351.79
171.591	12.76014	60.76339	271.17
172.591	12.67717	40.90857	210.828
173.591	12.57298	37.71061	143.051
174.591	12.56588	32.58699	101.106
175.591	12.56304	24.20049	52.52859
176.591	12.55685	21.8238	39.17768
177.591	12.5699	18.94003	31.96003
178.591	12.58335	17.91229	24.93784
179.591	12.58588	15.93351	20.21336
180.591	12.62314	15.35353	17.95375
181.591	12.64307	14.85992	16.84595
182.591	12.64389	13.99961	15.8462
183.591	12.70708	13.35756	14.35913
184.591	12.77046	13.20739	13.41659
185.591	12.73317	13.00151	13.27025
186.591	12.7465	12.65483	13.1268
187.591	12.80612	12.60919	12.91799
188.591	12.81135	12.53833	12.80582
189.591	12.81279	12.47084	12.81959
190.591	12.88211	12.42566	12.81774
191.591	12.91097	12.37288	12.78211
192.591	12.85535	12.40911	12.7913
193.591	12.90781	12.42804	12.88432
194.591	12.91866	12.45807	12.93627
195.591	12.90946	12.50465	12.94976
196.591	12.94986	12.50057	12.99277
197.591	12.90993	12.43962	13.06061
198.591	12.97709	12.59466	13.10142
199.591	12.97996	12.64497	13.1506
200.591	12.9147	12.5964	13.18293
201.591	12.90677	12.67422	13.26743
202.591	12.9459	12.66733	13.22701
203.591	12.91425	12.74564	13.30761
204.591	12.91524	12.73882	13.31737
205.591	12.92027	12.74027	13.38657
206.591	12.87316	12.7527	13.37555
207.591	12.81436	12.79118	13.44087
208.591	12.80966	12.84749	13.44973
209.591	12.75082	12.84341	13.66774
210.591	12.80612	12.84998	13.45073
211.591	12.79886	12.90105	13.38492
212.591	12.7211	12.91249	13.38651
213.591	12.81071	12.87591	13.4187
214.591	12.20019	12.91517	13.39341
215.591	12.55978	12.96209	13.31604
216.591	14.09884	12.97844	13.26605
217.591	15.81718	12.98609	13.2409
218.591	17.24474	12.91593	13.22758
219.591	18.49918	12.98422	13.19914
220.591	19.05262	12.92714	13.03265
221.591	19.81611	12.94815	13.00629
222.591	19.86982	12.90893	12.9575
223.591	22.85898	12.90861	12.93558
224.591	25.50166	12.88618	12.87467
225.591	29.71145	12.799	12.82481
226.591	31.78552	12.84522	12.78008
227.591	32.13964	12.84733	12.8373
228.591	32.67989	12.744	12.78272
229.591	30.87572	12.74908	12.6523
230.591	32.57132	12.73033	12.71296
231.591	32.1021	12.66895	12.64672
232.591	33.30318	12.64115	12.60364
233.591	35.62352	12.54191	12.59949
234.591	39.05187	12.56175	12.55522
235.591	42.2529	12.57226	12.527
236.591	44.24377	12.50811	12.49486
237.591	46.41635	12.49452	12.49486
238.591	43.55997	12.50544
239.591	40.27542
240.591	45.55974
241.591	50.43512
242.591	48.11849
243.591	52.50498
244.591	49.38004
245.591	50.33222
246.591	53.5743
247.591	52.19531
248.591	51.10553
249.591	59.92151
250.591	61.12204
251.591	64.13474