Folder: Piep-DMA/data/Temperature Sweep

File: Ed.txt
#EXPORTTYPE:  	DATA COMPARE                 	DATA COMPARE                 	DATA COMPARE
#FILE:        	Sample1.ngb-dm2                    	Sample2.ngb-dm2                    	Sample3.ngb-dm2
#FORMAT:      	NETZSCH5                     	NETZSCH5                     	NETZSCH5
#FTYPE:       	ANSI                         	ANSI                         	ANSI
#IDENTITY:    	3	2	1
#DECIMAL:     	POINT                        	POINT                        	POINT
#SEPARATOR:   	TAB                          	TAB                          	TAB
#MTYPE:       	DMA                          	DMA                          	DMA
#INSTRUMENT:  	NETZSCH DMA 242              	NETZSCH DMA 242              	NETZSCH DMA 242
#PROJECT:     	Amtrol                       	Amtrol                       	Amtrol
#DATE/TIME:   	5/29/2024 12:46:57 PM (UTC+1)	5/29/2024 11:00:19 AM (UTC+1)	5/29/2024 9:25:24 AM (UTC+1)
#LABORATORY:  	Piep                         	Piep                         	Piep
#OPERATOR:    	LG                           	LG                           	LG
#REMARK:
#SAMPLEHOLDER:	SingleCantilever16           	SingleCantilever16           	SingleCantilever16
#SAMPLE:      	Resin                        	Resin                        	Resin
#SAMPLEDIM/MM:	16.000x10.660x3.660          	16.000x10.560x3.640          	16.000x10.720x3.700
#MATERIAL:
#CORR. CODE:  	0	0	0
#RANGE:       	90.0°C/3.0(K/min)/260.0°C    	90.0°C/5.0(K/min)/260.0°C    	25.0°C/10.0(K/min)/400.0°C
#SEGMENT:     	S1/2                         	S1/2                         	S1/2
#SEG. 1:      	90.0°C/3.0(K/min)/260.0°C    	90.0°C/5.0(K/min)/260.0°C    	25.0°C/10.0(K/min)/400.0°C

##Temp./°C	"E""(1.000 Hz)/MPa"	"E""(1.000 Hz)/MPa"	"E""(1.000 Hz)/MPa"
24.59108	              	              	20.62772
25.59108	              	              	20.50417
26.59108	              	              	20.02451
27.59108	              	              	20.54463
28.59108	              	              	20.04196
29.59108	              	              	20.35362
30.59108	              	              	20.69897
31.59108	              	              	20.5918
32.59108	              	              	20.61876
33.59108	              	              	20.58934
34.59108	              	              	20.59118
35.59108	              	              	20.59332
36.59108	              	              	20.5564
37.59108	              	              	20.54736
38.59108	              	              	20.5526
39.59108	              	              	20.55141
40.59108	              	              	20.54423
41.59108	              	              	20.44619
42.59108	              	              	20.88766
43.59108	              	              	21.10479
44.59108	              	              	20.54363
45.59108	              	              	20.3444
46.59108	              	              	21.05199
47.59108	              	              	20.80099
48.59108	              	              	20.28514
49.59108	              	              	20.53655
50.59108	              	              	20.93199
51.59108	              	              	21.21274
52.59108	              	              	20.61003
53.59108	              	              	20.42841
54.59108	              	              	21.04192
55.59108	              	              	20.9512
56.59108	              	              	20.95766
57.59108	              	              	21.01498
58.59108	              	              	20.63085
59.59108	              	              	20.22096
60.59108	              	              	20.69338
61.59108	              	              	20.87481
62.59108	              	              	21.43692
63.59108	              	              	21.29736
64.59108	              	              	20.79045
65.59108	              	              	21.37726
66.59108	              	              	21.20708
67.59108	              	              	20.7223
68.59108	              	              	20.63442
69.59108	              	              	20.70212
70.59108	              	              	20.54253
71.59108	              	              	20.79394
72.59108	              	              	21.26192
73.59108	              	              	20.53224
74.59108	              	              	20.80626
75.59108	              	              	21.19563
76.59108	              	              	21.14703
77.59108	              	              	21.16945
78.59108	              	              	20.57197
79.59108	              	              	20.31109
80.59108	              	              	20.294
81.59108	              	              	20.30713
82.59108	              	              	20.89165
83.59108	              	              	20.58526
84.59108	              	              	20.18066
85.59108	              	              	20.67858
86.59108	              	              	20.41066
87.59108	16.75042	              	20.10962
88.59108	16.75042	              	20.41293
89.59108	16.75336	              	20.76096
90.59108	16.09138	15.09324	20.66205
91.59108	16.78097	15.06084	20.62682
92.59108	16.73573	15.07195	20.62241
93.59108	16.06382	14.431	20.56441
94.59108	16.67622	15.1075	20.49166
95.59108	16.8112	14.43475	20.47905
96.59108	17.26479	15.04045	20.54354
97.59108	17.24675	15.03296	20.30106
98.59108	17.24521	15.03814	19.80134
99.59108	17.7427	15.56849	20.41337
100.591	17.1516	14.8028	20.30635
101.591	17.7829	15.66326	20.19891
102.591	17.65998	15.58265	20.45499
103.591	17.80297	16.01386	20.89566
104.591	18.27763	16.19813	20.85357
105.591	18.52191	16.02421	20.87134
106.591	18.17621	15.97692	20.56182
107.591	18.43805	16.43161	20.08862
108.591	18.88204	16.34209	20.65139
109.591	18.78176	16.6948	20.13521
110.591	18.73615	16.02797	20.33167
111.591	19.30487	16.60764	21.18168
112.591	19.26889	16.54713	20.62728
113.591	18.58587	17.23805	20.62858
114.591	19.51452	17.18421	21.18256
115.591	20.21314	17.29738	21.08131
116.591	19.69679	17.80076	20.99166
117.591	20.19674	17.76453	21.05925
118.591	20.70532	17.64243	20.79186
119.591	21.38898	18.86947	20.29671
120.591	21.75543	18.1853	20.63706
121.591	21.70274	18.3119	20.86682
122.591	22.48809	18.77295	20.72588
123.591	23.01372	18.66216	21.00635
124.591	23.51135	19.29363	21.38105
125.591	23.33324	19.34656	21.27398
126.591	24.77587	19.24928	21.86711
127.591	25.23804	19.7861	21.90695
128.591	26.4574	19.69665	21.76525
129.591	27.23026	20.40428	21.69246
130.591	29.04483	20.32615	22.3128
131.591	30.01309	19.56139	22.29001
132.591	31.55542	20.84215	22.24579
133.591	33.27392	20.83649	22.93031
134.591	35.38488	21.80726	23.25593
135.591	39.026	21.79354	23.1491
136.591	41.34477	22.08564	23.48121
137.591	46.10951	22.80779	24.08586
138.591	51.07691	23.13577	24.46334
139.591	57.06803	23.89411	24.02899
140.591	65.19961	23.83679	24.38325
141.591	73.35174	25.22687	24.72997
142.591	80.62707	25.96321	25.35372
143.591	93.8253	26.90626	26.85273
144.591	111.966	27.4981	27.18247
145.591	121.214	29.87187	27.41221
146.591	133.852	30.50258	28.32861
147.591	148.397	31.49623	29.30247
148.591	153.754	33.18643	29.97052
149.591	156.376	35.18989	31.09004
150.591	154.249	38.94388	31.84016
151.591	146.113	41.27382	32.24816
152.591	132.698	43.33404	33.52497
153.591	117.605	50.24778	35.36353
154.591	99.77052	52.57512	36.85996
155.591	74.99375	61.35378	40.70447
156.591	63.54175	72.47568	43.65746
157.591	47.53538	77.79121	45.80465
158.591	39.18901	84.7266	49.01839
159.591	28.97903	101.267	55.37333
160.591	20.76932	118.251	59.47813
161.591	16.3821	125.618	63.55759
162.591	13.83111	134.052	68.58345
163.591	10.49403	153.254	74.33213
164.591	7.75174	158.508	84.03826
165.591	6.4889	156.135	94.81138
166.591	4.95244	153.2529	100.11
167.591	4.20273	135.713	104.768
168.591	3.07348	107.7557	120.286
169.591	2.56535	95.07377	124.09
170.591	2.04642	82.64169	121.423
171.591	1.58495	61.6136	114.314
172.591	1.32986	40.36604	105.175
173.591	1.10152	36.47351	88.76922
174.591	0.83864	29.99884	72.85319
175.591	0.6805	18.67477	43.43257
176.591	0.63482	15.22898	31.65595
177.591	0.43927	11.07813	24.32973
178.591	0.43959	9.63892	16.63921
179.591	0.33524	6.94072	11.09662
180.591	0.30278	6.04053	8.25565
181.591	0.31399	5.37404	6.92607
182.591	0.23895	3.98231	5.7772
183.591	0.23972	2.9347	3.65595
184.591	0.23739	2.6258	2.25925
185.591	0.17651	2.38795	1.87262
186.591	0.17425	1.57105	1.54976
187.591	0.1722	1.36739	1.07224
188.591	0.15931	1.13671	0.83309
189.591	0.14427	0.79105	0.70268
190.591	0.10957	0.70418	0.51093
191.591	7.50E-02	0.55959	0.3844
192.591	0.17415	0.57372	0.35526
193.591	0.11157	0.43145	0.2728
194.591	0.10379	0.37779	0.17404
195.591	0.10614	0.31409	0.2485
196.591	0.11849	0.24455	0.18657
197.591	0.11761	0.24014	0.17581
198.591	0.10939	0.24835	0.1737
199.591	4.48E-02	0.21217	0.14003
200.591	0.11607	0.16948	0.13123
201.591	0.10917	0.17505	0.13129
202.591	0.10811	0.17598	0.11192
203.591	4.96E-02	0.18636	0.14239
204.591	3.43E-02	0.11829	0.11359
205.591	0.11265	0.12307	0.11329
206.591	0.10959	4.86E-02	0.11267
207.591	-1.56E-02	9.51E-02	5.21E-02
208.591	4.41E-02	0.12672	0.113
209.591	0.11292	0.13884	0.1184
210.591	4.33E-02	0.10152	0.11494
211.591	4.50E-02	0.11082	0.11311
212.591	7.21E-02	0.11044	6.08E-02
213.591	0.1293	6.84E-02	4.42E-02
214.591	2.28736	5.75E-02	-8.12E-03
215.591	4.5726	6.73E-02	6.19E-02
216.591	7.93485	0.11139	5.02E-02
217.591	10.03739	9.53E-02	4.18E-02
218.591	12.66023	0.11202	5.30E-02
219.591	16.73213	8.67E-02	9.81E-02
220.591	19.415	6.48E-02	4.48E-02
221.591	23.87124	6.86E-02	0.11537
222.591	28.60283	5.23E-02	6.95E-02
223.591	35.94904	0.1	5.39E-02
224.591	39.41056	8.38E-02	-1.74E-02
225.591	42.44185	-4.62E-03	4.10E-02
226.591	42.2632	4.53E-02	4.53E-02
227.591	44.04768	0.10862	0.1095
228.591	45.46303	0.1001	4.65E-02
229.591	50.36267	-1.48E-02	4.34E-02
230.591	57.74887	4.99E-02	1.72E-03
231.591	62.20656	3.72E-02	4.92E-02
232.591	65.52136	4.13E-02	4.40E-02
233.591	63.17028	4.01E-02	-1.39E-02
234.591	64.19143	4.24E-02	2.35E-02
235.591	65.08788	4.27E-02	4.41E-02
236.591	70.38109	4.17E-02	4.37E-02
237.591	77.98576	4.10E-02	4.37E-02
238.591	79.67353	4.17E-02
239.591	76.15356
240.591	73.87511
241.591	74.93327
242.591	80.46331
243.591	95.67596
244.591	89.58421
245.591	94.42665
246.591	93.41092
247.591	93.7679
248.591	93.33902
249.591	116.981
250.591	126.6965
251.591	114.248

File: Td.txt
#EXPORTTYPE:  	DATA COMPARE                 	DATA COMPARE                 	DATA COMPARE
#FILE:        	3.ngb-dm2                    	5.ngb-dm2                    	10.ngb-dm2
#FORMAT:      	NETZSCH5                     	NETZSCH5                     	NETZSCH5
#FTYPE:       	ANSI                         	ANSI                         	ANSI
#IDENTITY:    	3                            	2                            	1
#DECIMAL:     	POINT                        	POINT                        	POINT
#SEPARATOR:   	TAB                          	TAB                          	TAB
#MTYPE:       	DMA                          	DMA                          	DMA
#INSTRUMENT:  	NETZSCH DMA 242              	NETZSCH DMA 242              	NETZSCH DMA 242
#PROJECT:     	Amtrol                       	Amtrol                       	Amtrol
#DATE/TIME:   	5/29/2024 12:46:57 PM (UTC+1)	5/29/2024 11:00:19 AM (UTC+1)	5/29/2024 9:25:24 AM (UTC+1)
#LABORATORY:  	Piep                         	Piep                         	Piep
#OPERATOR:    	LG                           	LG                           	LG
#REMARK:
#SAMPLEHOLDER:	SingleCantilever16           	SingleCantilever16           	SingleCantilever16
#SAMPLE:      	Resin                        	Resin                        	Resin
#SAMPLEDIM/MM:	16.000x10.660x3.660          	16.000x10.560x3.640          	16.000x10.720x3.700
#MATERIAL:
#CORR. CODE:  	0                            	0                            	0
#RANGE:       	90.0°C/3.0(K/min)/260.0°C    	90.0°C/5.0(K/min)/260.0°C    	25.0°C/10.0(K/min)/400.0°C
#SEGMENT:     	S1/2                         	S1/2                         	S1/2
#SEG. 1:      	90.0°C/3.0(K/min)/260.0°C    	90.0°C/5.0(K/min)/260.0°C    	25.0°C/10.0(K/min)/400.0°C

##Temp./°C	tan d(1.000 Hz)	tan d(1.000 Hz)	tan d(1.000 Hz)
 24.59108	              	              	 1.570357e-002
 26.59108	              	              	 1.526162e-002
 28.59108	              	              	 1.526992e-002
 30.59108	              	              	 1.576001e-002
 32.59108	              	              	 1.570825e-002
 34.59108	              	              	 1.570246e-002
 36.59108	              	              	 1.569142e-002
 38.59108	              	              	 1.570085e-002
 40.59108	              	              	 1.570132e-002
 42.59108	              	              	 1.598869e-002
 44.59108	              	              	 1.574089e-002
 46.59108	              	              	 1.614424e-002
 48.59108	              	              	 1.559635e-002
 50.59108	              	              	 1.610921e-002
 52.59108	              	              	 1.589074e-002
 54.59108	              	              	 1.623310e-002
 56.59108	              	              	 1.620861e-002
 58.59108	              	              	 1.598607e-002
 60.59108	              	              	 1.605217e-002
 62.59108	              	              	 1.667974e-002
 64.59108	              	              	 1.622045e-002
 66.59108	              	              	 1.656638e-002
 68.59108	              	              	 1.615900e-002
 70.59108	              	              	 1.613143e-002
 72.59108	              	              	 1.671092e-002
 74.59108	              	              	 1.641996e-002
 76.59108	              	              	 1.672996e-002
 78.59108	              	              	 1.632477e-002
 80.59108	              	              	 1.614139e-002
 82.59108	              	              	 1.665936e-002
 84.59108	              	              	 1.616362e-002
 86.59108	              	              	 1.638487e-002
 88.59108	 1.391002e-002	              	 1.643344e-002
 90.59108	 1.337464e-002	 1.279987e-002	 1.668532e-002
 92.59108	 1.392420e-002	 1.278351e-002	 1.668955e-002
 94.59108	 1.391272e-002	 1.281400e-002	 1.665657e-002
 96.59108	 1.444600e-002	 1.277717e-002	 1.673323e-002
 98.59108	 1.445794e-002	 1.279064e-002	 1.616960e-002
100.591	 1.444186e-002	 1.262714e-002	 1.666976e-002
102.591	 1.492989e-002	 1.330938e-002	 1.683646e-002
104.591	 1.549611e-002	 1.387607e-002	 1.721928e-002
106.591	 1.547664e-002	 1.374387e-002	 1.702018e-002
108.591	 1.613515e-002	 1.409320e-002	 1.715039e-002
110.591	 1.607758e-002	 1.385337e-002	 1.696532e-002
112.591	 1.661755e-002	 1.435734e-002	 1.728317e-002
114.591	 1.691080e-002	 1.497227e-002	 1.775868e-002
116.591	 1.717307e-002	 1.556416e-002	 1.768664e-002
118.591	 1.813901e-002	 1.546425e-002	 1.756566e-002
120.591	 1.918237e-002	 1.604303e-002	 1.748689e-002
122.591	 1.995045e-002	 1.660824e-002	 1.766330e-002
124.591	 2.104466e-002	 1.714967e-002	 1.825797e-002
126.591	 2.237224e-002	 1.716046e-002	 1.877295e-002
128.591	 2.410766e-002	 1.767236e-002	 1.875534e-002
130.591	 2.679160e-002	 1.829739e-002	 1.932667e-002
132.591	 2.949343e-002	 1.887164e-002	 1.933339e-002
134.591	 3.360358e-002	 1.990835e-002	 2.032917e-002
136.591	 4.019620e-002	 2.022033e-002	 2.066451e-002
138.591	 5.139853e-002	 2.131731e-002	 2.157990e-002
140.591	 6.904245e-002	 2.214373e-002	 2.168407e-002
142.591	 9.077836e-002	 2.430791e-002	 2.261987e-002
144.591	       0.14701	 2.598694e-002	 2.442645e-002
146.591	       0.20572	 2.924102e-002	 2.574426e-002
148.591	       0.31623	 3.220276e-002	 2.745349e-002
150.591	       0.46954	 3.882332e-002	 2.938777e-002
152.591	       0.66782	 4.383458e-002	 3.125088e-002
154.591	       0.85862	 5.521481e-002	 3.486479e-002
156.591	       1.00361	 8.243487e-002	 4.242333e-002
158.591	       1.00496	       0.10185	 4.868694e-002
160.591	       0.83896	       0.17088	 6.144459e-002
162.591	       0.68883	       0.21994	 7.424218e-002
164.591	       0.47989	       0.39512	 9.901812e-002
166.591	       0.34202	       0.55632	       0.13274
168.591	       0.22879	       0.86163	       0.21377
170.591	       0.15770	       0.96383	       0.34510
172.591	       0.10486	       0.98672	       0.49882
174.591	 6.682347e-002	       0.92058	       0.72092
176.591	 5.055819e-002	       0.69784	       0.80777
178.591	 3.490008e-002	       0.53798	       0.66718
180.591	 2.399873e-002	       0.39349	       0.45998
182.591	 1.890003e-002	       0.28444	       0.36449
184.591	 1.854321e-002	       0.19888	       0.16835
186.591	 1.360075e-002	       0.12412	       0.11805
188.591	 1.235785e-002	 9.065660e-002	 6.506805e-002
190.591	 8.521289e-003	 5.667733e-002	 3.980967e-002
192.591	 1.341723e-002	 4.618205e-002	 2.777959e-002
194.591	 7.979863e-003	 3.027965e-002	 1.351011e-002
196.591	 9.099439e-003	 1.959453e-002	 1.438513e-002
198.591	 8.326517e-003	 1.969281e-002	 1.328297e-002
200.591	 8.959925e-003	 1.345904e-002	 9.984185e-003
202.591	 8.374275e-003	 1.387615e-002	 8.419155e-003
204.591	 2.690885e-003	 9.263343e-003	 8.498598e-003
206.591	 8.560416e-003	 3.861054e-003	 8.445039e-003
208.591	 3.482097e-003	 9.909163e-003	 8.411000e-003
210.591	 3.363411e-003	 7.922689e-003	 8.535735e-003
212.591	 5.707899e-003	 8.548995e-003	 4.597488e-003
214.591	       0.18719	 4.505715e-003	-5.598296e-004
216.591	       0.56258	 8.599287e-003	 3.778044e-003
218.591	       0.73393	 8.702419e-003	 3.974469e-003
220.591	       1.01843	 5.021755e-003	 3.434103e-003
222.591	       1.43913	 4.162454e-003	 5.376876e-003
224.591	       1.54592	 6.491447e-003	-1.292303e-003
226.591	       1.32899	 3.609274e-003	 3.547109e-003
228.591	       1.39099	 7.832932e-003	 3.636084e-003
230.591	       1.77288	 3.898463e-003	 1.525047e-004
232.591	       1.96637	 3.274986e-003	 3.491313e-003
234.591	       1.64533	 3.370961e-003	 1.851739e-003
236.591	       1.59094	 3.331885e-003	 3.496190e-003
238.591	       1.83018	 3.331596e-003
240.591	       1.62037
242.591	       1.67197
244.591	       1.81377
246.591	       1.74334
248.591	       1.82650
250.591	       2.07068
251.591	       1.78049